"Time (s)","Acceleration x (m/s^2)","Acceleration y (m/s^2)","Acceleration z (m/s^2)"
3.838057400E-2,1.130608693E-1,9.638289452E0,3.348456144E0
4.332166800E-2,1.680957973E-1,9.616754532E0,3.228815079E0
4.822026200E-2,2.231307179E-1,9.573683739E0,3.082553864E0
5.306911600E-2,2.733799815E-1,9.511469841E0,2.970091105E0
5.796541800E-2,2.973082066E-1,9.446864128E0,2.927020311E0
6.290656400E-2,3.571287692E-1,9.439684868E0,2.919841766E0
6.775802200E-2,3.284149170E-1,9.403793335E0,2.881556749E0
7.267255400E-2,3.523431420E-1,9.362815857E0,2.871985435E0
7.755067900E-2,4.265206456E-1,9.281459808E0,2.857628345E0
8.249187600E-2,4.743770957E-1,9.202496529E0,2.922234535E0
8.738843900E-2,4.767699242E-1,9.200103760E0,2.903092146E0
9.223963700E-2,4.576273263E-1,9.214461327E0,2.821736097E0
9.713593900E-2,4.624129832E-1,9.238389015E0,2.764308453E0
1.020322930E-1,4.815555513E-1,9.245567322E0,2.728415966E0
1.069470330E-1,4.528416991E-1,9.262317657E0,2.814557552E0
1.118248970E-1,4.241278172E-1,9.255139351E0,2.903092146E0
1.167211990E-1,4.169493318E-1,9.262317657E0,2.922234535E0
1.216175540E-1,3.523431420E-1,9.262317657E0,2.903092146E0
1.265589600E-1,3.164508045E-1,9.286245346E0,2.898306370E0
1.314550540E-1,3.140579760E-1,9.262317657E0,2.931805849E0
1.363065120E-1,3.595215976E-1,9.212067604E0,2.917448997E0
1.412028140E-1,3.978067636E-1,9.152247429E0,2.831307411E0
1.460991160E-1,3.858426511E-1,9.152247429E0,2.704487801E0
1.510135950E-1,4.121637046E-1,9.140283585E0,2.601297379E0
1.558917720E-1,4.025924206E-1,9.101998329E0,2.603690147E0
1.607880740E-1,4.001995921E-1,9.149854660E0,2.723630428E0
1.656843760E-1,3.738785386E-1,9.190532684E0,2.833700180E0
1.705989080E-1,3.619144261E-1,9.238389015E0,2.821736097E0
1.754770330E-1,3.212364316E-1,9.271888733E0,2.740380049E0
1.803772410E-1,2.997010350E-1,9.295816422E0,2.711666346E0
1.852696890E-1,3.355933726E-1,9.279067039E0,2.759522676E0
1.901841680E-1,3.930211067E-1,9.238389015E0,2.804986238E0
1.950622930E-1,4.217349887E-1,9.252745628E0,2.797807932E0
1.999585950E-1,3.810569942E-1,9.302995682E0,2.785843849E0
2.048549490E-1,3.308077157E-1,9.346066475E0,2.812164783E0
2.097512510E-1,3.667000830E-1,9.286245346E0,2.922234535E0
2.146475540E-1,4.025924206E-1,9.200103760E0,3.051447153E0
2.195439080E-1,3.954139352E-1,9.202496529E0,3.120838881E0
2.244402100E-1,3.164508045E-1,9.310173988E0,3.108874798E0
2.293365120E-1,2.781656384E-1,9.379565239E0,3.147160053E0
2.342328660E-1,2.757728100E-1,9.418149948E0,3.257529020E0
2.392258870E-1,3.164508045E-1,9.451649666E0,3.358027458E0
2.440254180E-1,2.925225794E-1,9.501898766E0,3.386741400E0
2.489217720E-1,3.092723191E-1,9.525827408E0,3.355634689E0
2.538181260E-1,3.188436031E-1,9.516255379E0,3.305385351E0
2.587144290E-1,3.355933726E-1,9.497113228E0,3.307778120E0
2.636107310E-1,3.140579760E-1,9.458827972E0,3.274278641E0
2.685070850E-1,3.068794906E-1,9.418149948E0,3.159124136E0
2.734033870E-1,3.140579760E-1,9.348459244E0,2.977269650E0
2.782996890E-1,2.709871531E-1,9.288638115E0,2.883949518E0
2.831960430E-1,2.853440940E-1,9.202496529E0,2.862414122E0
2.880923450E-1,3.116651475E-1,9.080462456E0,2.848057270E0
2.929886470E-1,3.164508045E-1,8.946464539E0,2.757129908E0
2.978849490E-1,3.427718580E-1,8.869894028E0,2.632404089E0
3.027813040E-1,3.762713671E-1,8.860322952E0,2.541476727E0
3.076776060E-1,4.025924206E-1,8.869894028E0,2.426621199E0
3.125739080E-1,4.265206456E-1,8.872286797E0,2.304587364E0
3.174702620E-1,4.217349887E-1,8.889037132E0,2.239981174E0
3.223665640E-1,4.193421602E-1,8.901000977E0,2.237588167E0
3.272628660E-1,4.097708762E-1,8.886644363E0,2.230409861E0
3.321592200E-1,3.619144261E-1,8.881858826E0,2.153839588E0
3.370555220E-1,2.781656384E-1,8.893822670E0,2.175374985E0
3.419518240E-1,2.398804724E-1,8.896215439E0,2.323729992E0
3.468481790E-1,1.824527234E-1,8.862715721E0,2.464906454E0
3.517444810E-1,1.202393398E-1,8.881858826E0,2.531905413E0
3.566407830E-1,5.084748194E-2,8.905786514E0,2.505584478E0
3.615370850E-1,7.776673418E-3,8.953642845E0,2.421835661E0
3.664334390E-1,-1.794616925E-3,8.975178719E0,2.395514488E0
3.713481790E-1,-6.161518395E-2,8.975178719E0,2.579761982E0
3.762260430E-1,-8.584251255E-2,8.929715157E0,3.111267567E0
3.811223970E-1,-1.217348501E-1,8.912964821E0,3.716950893E0
3.860186990E-1,-2.222333997E-1,8.948857307E0,4.121636868E0
3.909331790E-1,-2.629113793E-1,8.905786514E0,4.329812527E0
3.958113560E-1,-1.815554202E-1,8.838788033E0,4.320241451E0
4.007258350E-1,-7.866404206E-2,8.773882866E0,4.116851330E0
4.056039600E-1,5.324030295E-2,8.711668968E0,3.841676712E0
4.105003140E-1,2.422732860E-1,8.637491226E0,3.429812193E0
4.153966160E-1,3.834498227E-1,8.560921669E0,2.860021353E0
4.202929180E-1,4.791627228E-1,8.529814720E0,2.254338026E0
4.251892720E-1,6.134598851E-1,8.450851440E0,1.756331801E0
4.300891680E-1,7.522436380E-1,8.429315567E0,1.330110312E0
4.349818760E-1,9.101698995E-1,8.369495392E0,9.804590940E-1
4.398817720E-1,1.168893814E0,8.244769096E0,7.531409264E-1
4.447745330E-1,1.391426325E0,8.127521515E0,6.478567123E-1
4.496708350E-1,1.408176184E0,8.072485924E0,6.023930907E-1
4.545671370E-1,1.264606714E0,8.149056435E0,5.688936114E-1
4.594634910E-1,1.266999602E0,8.276175499E0,7.746763229E-1
4.643597930E-1,1.271785259E0,8.479565620E0,1.243968725E0
4.692560950E-1,1.113858938E0,8.737990379E0,1.907079697E0
4.741524490E-1,9.364909530E-1,8.939286232E0,2.503191471E0
4.790487510E-1,8.503493667E-1,9.070891380E0,2.941377163E0
4.839450540E-1,6.924230456E-1,9.231210709E0,3.453740358E0
4.888414080E-1,4.528416991E-1,9.473184586E0,3.968496323E0
4.937377100E-1,1.322034448E-1,9.779465675E0,4.320241451E0
4.986340120E-1,-8.584251255E-2,9.956833839E0,4.610072136E0
5.035303140E-1,-2.006980032E-1,9.992726326E0,5.057828903E0
5.084266680E-1,-4.304089844E-1,1.013390255E1,5.998507500E0
5.133229700E-1,-3.442673683E-1,1.011236763E1,6.760023117E0
5.182192720E-1,-3.083750308E-1,1.003818989E1,6.803093910E0
5.231156260E-1,-4.160520434E-1,1.006451130E1,6.465406895E0
5.280119290E-1,-5.237290859E-1,1.013390255E1,5.965007782E0
5.329082310E-1,-3.251247704E-1,1.025832939E1,5.831009865E0
5.378045850E-1,9.101698995E-1,9.540184021E0,7.559525013E0
5.427008870E-1,1.343569875E0,8.939286232E0,8.270492554E0
5.475971890E-1,9.245268703E-1,8.699705124E0,8.050353050E0
5.524934910E-1,3.403790295E-1,8.675776482E0,7.619345665E0
5.573898450E-1,2.805584669E-1,8.716454506E0,7.262814999E0
5.622861470E-1,2.949153781E-1,8.857930183E0,6.853343010E0
5.671824490E-1,-2.006980032E-1,9.226425171E0,6.218945980E0
5.720788040E-1,-7.393822074E-1,9.633503914E0,5.754439354E0
5.769751060E-1,-9.643075466E-1,9.848857880E0,5.524728298E0
5.818714080E-1,-8.757730722E-1,9.877572060E0,4.904388905E0
5.867677620E-1,-9.523434043E-1,9.934999466E0,3.551846027E0
5.916822410E-1,-1.256531000E0,1.015304565E1,2.125125647E0
5.965603660E-1,-1.641775489E0,1.035882854E1,9.855438471E-1
6.014567200E-1,-1.656132340E0,9.985548019E0,4.372883439E-1
6.063530220E-1,-1.165304661E0,9.879964828E0,-3.720839322E-1
6.112493240E-1,-5.907281041E-1,9.997511864E0,-6.448656917E-1
6.161456790E-1,-3.529413417E-2,1.016979504E1,-8.318049908E-1
6.210419810E-1,-6.400800496E-2,1.041386318E1,-8.341978192E-1
6.259382830E-1,-5.213362575E-1,1.076830006E1,-1.252941728E0
6.308530740E-1,-1.357029557E0,1.135244751E1,-2.050349951E0
6.357309390E-1,-2.357827663E0,1.207777214E1,-3.321537018E0
6.406454700E-1,-2.032104731E0,1.219292736E1,-1.624128342E0
6.455235430E-1,-1.653739572E0,1.178584766E1,-1.487737536E0
6.504380740E-1,-1.364207983E0,1.131894875E1,-7.791628838E-1
6.553161990E-1,-1.254138112E0,1.111077309E1,6.131608039E-2
6.602125010E-1,-9.236295223E-1,1.093819046E1,8.201399446E-1
6.651088560E-1,-4.686941206E-1,1.058883858E1,1.789831281E0
6.700051580E-1,-9.541380405E-2,1.007886791E1,2.836092949E0
6.749014600E-1,2.590230405E-1,9.475577354E0,3.954139471E0
6.797978140E-1,5.895316601E-1,8.934500694E0,5.021936417E0
6.846941160E-1,6.110670567E-1,8.587242126E0,5.732903957E0
6.895938560E-1,4.384847581E-1,8.417351723E0,6.005685806E0
6.944867720E-1,3.140579760E-1,8.278568268E0,5.974578857E0
6.993830740E-1,-3.050848842E-2,8.259126663E0,5.613262653E0
7.042793760E-1,-3.586242795E-1,8.309675217E0,5.177470207E0
7.091756790E-1,-4.950151742E-1,8.388637543E0,5.038686275E0
7.140720330E-1,-3.131606579E-1,8.520243645E0,4.234099865E0
7.189683350E-1,-1.528415531E-1,8.467600822E0,2.800200701E0
7.238646370E-1,-3.529413417E-2,8.615956306E0,1.801795483E0
7.287609910E-1,-7.118647546E-2,9.137890816E0,1.550549030E0
7.336572930E-1,-2.557329237E-1,9.669396400E0,1.107577801E0
7.385535950E-1,-3.370888829E-1,9.899106979E0,5.449653864E-1
7.434499490E-1,-5.045864582E-1,9.908679008E0,1.785643846E-1
7.483462510E-1,-6.436693072E-1,9.748359680E0,2.718844712E-1
7.532425540E-1,-7.034898400E-1,9.544969559E0,5.808576941E-1
7.581388560E-1,-7.944171429E-1,9.336494446E0,1.052542806E0
7.630352100E-1,-9.451649189E-1,9.231210709E0,1.579262972E0
7.679315120E-1,-1.292423368E0,9.317352295E0,1.919043779E0
7.728278140E-1,-1.706381679E0,9.588040352E0,2.115554333E0
7.777241680E-1,-1.838286042E0,9.781859398E0,2.108375788E0
7.826204700E-1,-1.823929071E0,9.882357597E0,2.194517374E0
7.875167720E-1,-1.965105653E0,9.964012146E0,2.598904610E0
7.924313040E-1,-2.123031855E0,1.010279655E1,3.501596928E0
7.973094290E-1,-2.060818434E0,1.024875832E1,4.377968311E0
8.022057310E-1,-1.890928149E0,1.039232826E1,4.763212681E0
8.071020850E-1,-1.773679733E0,1.050718307E1,4.478466511E0
8.119983870E-1,-2.003390789E0,1.073958588E1,3.841676712E0
8.168946890E-1,-2.175673962E0,1.093819046E1,3.209373474E0
8.217910430E-1,-2.134995937E0,1.098365402E1,2.831307411E0
8.266873450E-1,-2.005783558E0,1.089033413E1,2.639582396E0
8.316018760E-1,-1.871785522E0,1.073480034E1,2.373979092E0
8.364799490E-1,-1.833500385E0,1.069651508E1,2.009970903E0
8.413944810E-1,-1.718345761E0,1.067498016E1,1.756331801E0
8.462726060E-1,-1.476670623E0,1.056730270E1,1.502393484E0
8.511689080E-1,-1.333101273E0,1.041864872E1,1.198505044E0
8.560652620E-1,-1.258923769E0,1.023918724E1,1.074078321E0
8.609797410E-1,-1.167697430E0,1.001904774E1,1.074078321E0
8.658578660E-1,-9.786644578E-1,9.762716293E0,1.165005565E0
8.707723450E-1,-8.542376757E-1,9.442078590E0,1.342074394E0
8.756505220E-1,-7.561319470E-1,9.123533249E0,1.552941918E0
8.805650010E-1,-7.010970116E-1,8.778668404E0,1.749153376E0
8.854431260E-1,-6.146563292E-1,8.414958954E0,1.986042738E0
8.903576580E-1,-4.112663865E-1,8.053343773E0,2.318944216E0
8.952357830E-1,-2.078764737E-1,7.730312824E0,2.673381090E0
9.001320850E-1,-1.854437590E-2,7.485945702E0,2.979662418E0
9.050284390E-1,2.446661144E-1,7.330412388E0,3.238386393E0
9.099247410E-1,3.547359705E-1,7.275377274E0,3.446561813E0
9.148210430E-1,3.906283081E-1,7.337590694E0,3.602095366E0
9.197173970E-1,2.925225794E-1,7.548159122E0,3.671487331E0
9.246136990E-1,6.999006122E-2,7.900203228E0,3.654737473E0
9.295100010E-1,-1.983051747E-1,8.316853523E0,3.585345745E0
9.344063040E-1,-4.686941206E-1,8.728418350E0,3.520739317E0
9.394001060E-1,-7.944171429E-1,9.140283585E0,3.511168242E0
9.441989080E-1,-1.079162955E0,9.561718941E0,3.501596928E0
9.490953140E-1,-1.014556766E0,9.901499748E0,3.465704441E0
9.539916160E-1,-9.236295223E-1,1.007168961E1,3.468097210E0
9.588879180E-1,-8.111668825E-1,1.018175983E1,3.506382465E0
9.637842200E-1,-7.058826685E-1,1.022722340E1,3.489632607E0
9.686805740E-1,-4.088735580E-1,1.036361408E1,3.448954821E0
9.735768760E-1,-1.504487246E-1,1.049043369E1,3.305385351E0
9.784731790E-1,-1.528415531E-1,1.060319519E1,3.003590584E0
9.833695330E-1,-5.165506005E-1,1.077069283E1,2.678166628E0
9.882658350E-1,-9.188438654E-1,1.097647572E1,2.486441851E0
9.931621370E-1,-1.071984529E0,1.105783176E1,2.318944216E0
9.980584390E-1,-1.071984529E0,1.093579769E1,2.242373943E0
1.002954793E0,-1.194018483E0,1.066780186E1,2.158625126E0
1.007851095E0,-1.002592683E0,1.027507973E1,2.170589209E0
1.012747397E0,-6.314060688E-1,9.925428391E0,2.273480654E0
1.017643751E0,-4.304089844E-1,9.568898201E0,2.395514488E0
1.022540054E0,-3.011965454E-1,9.267103195E0,2.596511602E0
1.027436356E0,-2.102692872E-1,9.113962173E0,2.735594511E0
1.032332710E0,-3.801597059E-1,9.111569405E0,2.826521635E0
1.037229012E0,-5.045864582E-1,9.066105843E0,2.879163742E0
1.042125314E0,-6.098706722E-1,9.023035049E0,2.879163742E0
1.047021668E0,-7.369893789E-1,9.046963692E0,3.065804005E0
1.051917970E0,-9.164510965E-1,9.133105278E0,3.637987614E0
1.056814272E0,-1.038485050E0,9.271888733E0,4.246063709E0
1.061728804E0,-9.332008362E-1,9.362815857E0,4.404289246E0
1.066606929E0,-6.891329288E-1,9.374779701E0,4.057030678E0
1.071521408E0,-5.955137610E-1,9.442078590E0,3.585345745E0
1.076399533E0,-7.728816867E-1,9.640682220E0,3.231207848E0
1.081295887E0,-1.067198873E0,9.927821159E0,2.950948477E0
1.086192189E0,-1.232602715E0,1.020329475E1,2.764308453E0
1.091106668E0,-1.287637711E0,1.050000477E1,2.702095032E0
1.095984845E0,-1.215852976E0,1.075394344E1,2.630011082E0
1.100899324E0,-1.199103236E0,1.091665554E1,2.529512644E0
1.105777449E0,-1.354636669E0,1.096929741E1,2.551048040E0
1.110691981E0,-1.462313771E0,1.091186905E1,2.622832775E0
1.115570106E0,-1.419242978E0,1.074197865E1,2.723630428E0
1.120469949E0,-1.299601793E0,1.045932674E1,2.675773859E0
1.125362710E0,-1.215852976E0,1.017458057E1,2.378764868E0
1.130259064E0,-1.357029557E0,9.899106979E0,1.962114573E0
1.135155366E0,-1.431207061E0,9.736394882E0,1.639083505E0
1.140055158E0,-9.332008362E-1,9.530612946E0,1.576870084E0
1.144948022E0,-7.274180651E-1,9.317352295E0,1.624726534E0
1.149844324E0,-6.580262184E-1,9.130712509E0,1.619940877E0
1.154740626E0,-6.508477330E-1,9.073284149E0,1.584048629E0
1.159636929E0,-5.620142221E-1,9.118747711E0,1.581655741E0
1.164533283E0,-4.423730969E-1,9.247960091E0,1.622333765E0
1.169429585E0,-4.663013220E-1,9.377172470E0,1.677368641E0
1.174325887E0,-6.364908218E-1,9.559326172E0,1.708475351E0
1.179222241E0,-7.345965505E-1,9.700503349E0,1.722832322E0
1.184118543E0,-8.829515576E-1,9.832108498E0,1.753939033E0
1.189018126E0,-1.055234790E0,9.942177773E0,1.861616015E0
1.193911199E0,-1.201496124E0,9.992726326E0,2.129911184E0
1.198807501E0,-1.285244823E0,1.002622604E1,2.608475685E0
1.203703804E0,-1.536491275E0,1.011715317E1,3.056232691E0
1.208600106E0,-1.761715651E0,1.011715317E1,3.324527979E0
1.213496460E0,-1.788036704E0,1.000229740E1,3.322135210E0
1.218392762E0,-1.802393675E0,9.983155251E0,3.257529020E0
1.223289064E0,-1.653739572E0,1.022004509E1,3.288635731E0
1.228185418E0,-1.464706540E0,1.040668488E1,3.255136013E0
1.233081720E0,-1.524527073E0,1.042821980E1,3.199802160E0
1.237978022E0,-1.586740494E0,1.027507973E1,3.056232691E0
1.242874376E0,-1.495813251E0,1.007886791E1,2.788236618E0
1.247770679E0,-1.392921925E0,9.947262764E0,2.512762785E0
1.252666981E0,-1.309173107E0,9.851250648E0,2.273480654E0
1.257563283E0,-1.244566917E0,9.741181374E0,2.117947102E0
1.262459637E0,-1.234995604E0,9.657432556E0,1.945364833E0
1.267355939E0,-1.227817178E0,9.564111710E0,1.753939033E0
1.272252241E0,-1.083948612E0,9.408578873E0,1.552941918E0
1.277148595E0,-9.212366939E-1,9.224032402E0,1.325324655E0
1.282044897E0,-8.925228715E-1,9.118747711E0,1.155434251E0
1.286941199E0,-9.547362328E-1,9.106783867E0,1.023828983E0
1.291855991E0,-9.858429432E-1,9.202496529E0,9.230313301E-1
1.296733856E0,-7.992027402E-1,9.353244781E0,8.871390224E-1
1.301630158E0,-7.106683254E-1,9.537791252E0,8.440681696E-1
1.306526460E0,-7.274180651E-1,9.726823807E0,8.009973764E-1
1.311440939E0,-6.266204119E-1,9.973584175E0,3.149552941E-1
1.316319116E0,-2.198405862E-1,9.973584175E0,-1.329811215E0
1.321233595E0,-4.486542568E-2,9.848857880E0,-1.459023595E0
1.326111772E0,-1.794616925E-3,9.765109062E0,-1.075872898E0
1.331008074E0,-2.811566554E-2,9.698110580E0,-7.049853802E-1
1.335904376E0,-3.203391433E-1,9.688538551E0,-7.746763527E-2
1.340818856E0,-6.388836503E-1,9.614361763E0,6.717849374E-1
1.345697033E0,-6.218347549E-1,9.542576790E0,1.535893083E0
1.350593335E0,-7.010970116E-1,9.568898201E0,2.132304192E0
1.355489637E0,-1.024128079E0,9.571290970E0,2.342872381E0
1.360385991E0,-1.297209024E0,9.580862045E0,2.347658157E0
1.365282293E0,-1.565205097E0,9.240781784E0,1.962114573E0
1.370178595E0,-9.595218897E-1,9.018249512E0,1.332503080E0
1.375074897E0,-1.719841212E-1,9.772287369E0,4.468596280E-1
1.379971251E0,-7.633104324E-1,1.053380394E1,-2.548356056E-1
1.384867554E0,-9.260223508E-1,1.080179977E1,2.264208496E-1
1.389767189E0,-6.098706722E-1,1.074197865E1,-1.372881979E-1
1.394660210E0,-1.935195327E-1,1.070847988E1,-3.984049559E-1
1.399556512E0,1.974078640E-2,1.073001480E1,4.456632212E-2
1.404452814E0,-4.136592150E-1,1.103390312E1,2.000399828E0
1.409349168E0,-1.739881158E0,1.151515961E1,6.740880489E0
1.414245470E0,-2.180459738E0,1.196291637E1,9.556335449E0
1.419141772E0,-1.653739572E0,1.249442291E1,6.221338749E0
1.424038074E0,-7.776673436E-1,1.183370399E1,4.325026870E-1
1.428934429E0,4.606183618E-2,1.074676514E1,-1.858924150E0
1.433830731E0,7.402794957E-1,1.010758209E1,-2.347059965E0
1.438727033E0,1.020239711E0,9.633503914E0,-2.545963287E0
1.443623387E0,8.072785139E-1,9.420542717E0,-2.301596165E0
1.448519689E0,6.302096844E-1,9.473184586E0,-1.578664780E0
1.453415991E0,2.997010350E-1,9.487542152E0,-7.121638656E-1
1.458312293E0,-1.456630826E-1,9.463613510E0,2.503490746E-1
1.463208647E0,-3.514458239E-1,9.470791817E0,1.260718465E0
1.468104949E0,-3.945166469E-1,9.556933403E0,1.974078655E0
1.473001251E0,-6.002993584E-1,9.717252731E0,2.369193554E0
1.477897606E0,-7.800601721E-1,9.844072342E0,2.785843849E0
1.482793908E0,-8.446664214E-1,9.973584175E0,2.943770170E0
1.487690210E0,-8.039883971E-1,9.999904633E0,2.644368172E0
1.492586512E0,-6.963114142E-1,9.990333557E0,2.335694075E0
1.497482866E0,-5.548357368E-1,9.932606697E0,2.165803671E0
1.502379168E0,-3.586242795E-1,9.710074425E0,1.926222205E0
1.507275470E0,-2.676970363E-1,9.521040916E0,1.875972986E0
1.512171824E0,-2.318046987E-1,9.566504478E0,1.811366796E0
1.517068126E0,1.016949583E-2,9.353244781E0,1.720439434E0
1.521982866E0,-4.007977992E-2,9.300602913E0,1.959721804E0
1.526860783E0,-2.389831543E-1,9.523433685E0,1.605584025E0
1.531757085E0,3.858426511E-1,9.111569405E0,8.344969153E-1
1.536653387E0,2.709871531E-1,9.216854095E0,1.050150037E0
1.541549689E0,1.322034448E-1,9.413364410E0,9.254241586E-1
1.546446043E0,4.366901144E-2,9.521040916E0,1.141077280E0
1.551342345E0,-1.719841212E-1,9.518648148E0,1.914258122E0
1.556238647E0,1.495514158E-2,9.552147865E0,2.512762785E0
1.561153179E0,-8.344969153E-2,9.815358162E0,2.244766712E0
1.566031304E0,-3.490529954E-1,9.959226608E0,1.624726534E0
1.570927606E0,-5.285146832E-1,1.017458057E1,1.627119422E0
1.575823908E0,-4.208376706E-1,1.025115108E1,1.246361494E0
1.580738439E0,-1.504487246E-1,1.006211853E1,1.035793066E0
1.585616564E0,-4.007977992E-2,9.868000984E0,1.045364380E0
1.590531043E0,4.366901144E-2,9.753145218E0,1.059721351E0
1.595409220E0,1.704886109E-1,9.676574707E0,1.181755304E0
1.600305522E0,1.202393398E-1,9.566504478E0,1.236790180E0
1.605201824E0,4.606183618E-2,9.523433685E0,1.248754263E0
1.610098126E0,4.366901144E-2,9.542576790E0,1.243968725E0
1.614994481E0,-2.333002165E-2,9.655039787E0,1.234397411E0
1.619890783E0,-1.624128371E-1,9.712467194E0,1.042971611E0
1.624787085E0,-2.724826932E-1,9.736394882E0,1.033400297E0
1.629683439E0,-2.318046987E-1,9.719645500E0,1.299003601E0
1.634579741E0,-2.318046987E-1,9.736394882E0,1.466501236E0
1.639476043E0,-3.610171080E-1,9.820143700E0,1.548156261E0
1.644372397E0,-3.490529954E-1,9.906285286E0,1.562513232E0
1.649268699E0,-2.748754919E-1,9.894321442E0,1.502393484E0
1.654165001E0,-1.863410622E-1,9.844072342E0,1.480858088E0
1.659061304E0,-2.102692872E-1,9.822537422E0,1.567298889E0
1.663957658E0,-2.509472668E-1,9.810572624E0,1.567298889E0
1.668853960E0,-1.600200087E-1,9.863214493E0,1.423430324E0
1.673750262E0,7.776673418E-3,9.858428955E0,1.272682548E0
1.678646564E0,9.152546525E-2,9.779465675E0,1.129113197E0
1.683542918E0,1.274178028E-1,9.798608780E0,1.069292665E0
1.688439220E0,1.728814393E-1,9.891928673E0,1.076471090E0
1.693335522E0,1.848455518E-1,9.980762482E0,1.016650558E0
1.698231876E0,2.087737769E-1,1.003579712E1,9.182456732E-1
1.703128179E0,3.164508045E-1,1.005254745E1,7.818548083E-1
1.708024481E0,4.528416991E-1,1.002861881E1,7.363911867E-1
1.712920783E0,5.919244885E-1,9.987940788E0,8.225327730E-1
1.717817137E0,6.732804775E-1,1.006929684E1,9.110672474E-1
1.722713439E0,7.139584422E-1,1.019850922E1,8.129615188E-1
1.727609741E0,8.048857450E-1,1.021286583E1,7.172485590E-1
1.732524272E0,7.977072597E-1,1.012672424E1,7.627122402E-1
1.737402397E0,7.259225845E-1,1.012433147E1,8.847461939E-1
1.742298699E0,6.038886309E-1,1.017218781E1,9.804590940E-1
1.747195054E0,5.679962635E-1,1.013150978E1,1.117149115E0
1.752091356E0,7.331010103E-1,1.005972576E1,9.469595551E-1
1.756987658E0,7.019943595E-1,9.674181938E0,1.253539920E0
1.761883960E0,6.852445602E-1,9.384351730E0,1.804188251E0
1.766780314E0,6.397809386E-1,9.418149948E0,2.141875267E0
1.771676616E0,5.679962635E-1,9.422935486E0,2.192124605E0
1.776572918E0,5.464608669E-1,9.276674271E0,2.120339870E0
1.781469272E0,5.991029739E-1,9.080462456E0,2.096112728E0
1.786365574E0,7.378866673E-1,8.975178719E0,1.933400750E0
1.791280054E0,8.312067389E-1,9.034998894E0,1.674975872E0
1.796158179E0,8.862416744E-1,9.085248947E0,1.437787294E0
1.801054533E0,1.041775107E0,9.183354378E0,1.253539920E0
1.805950835E0,9.532406926E-1,9.032606125E0,1.370788217E0
1.810865314E0,6.684948206E-1,9.042177200E0,1.421037555E0
1.815743491E0,5.392823815E-1,9.245567322E0,1.540678620E0
1.820657970E0,5.871388316E-1,9.286245346E0,1.572084427E0
1.825536095E0,6.517450809E-1,9.116354942E0,1.622333765E0
1.830432397E0,7.833502889E-1,9.070891380E0,1.610369682E0
1.835328751E0,8.048857450E-1,9.066105843E0,1.651047587E0
1.840225054E0,7.666005492E-1,9.106783867E0,1.617548108E0
1.845121356E0,6.589235067E-1,9.204889297E0,1.629512191E0
1.850017710E0,6.661019921E-1,9.468399048E0,1.562513232E0
1.854914012E0,5.201398134E-1,9.456435204E0,1.756331801E0
1.859810314E0,3.475574851E-1,9.394221306E0,2.091326952E0
1.864706668E0,2.087737769E-1,9.430113792E0,2.414657116E0
1.869602970E0,2.039881349E-1,9.487542152E0,2.536691189E0
1.874499272E0,2.422732860E-1,9.540184021E0,2.512762785E0
1.879395626E0,2.518445849E-1,9.523433685E0,2.397907495E0
1.884291929E0,3.020938635E-1,9.470791817E0,2.290230274E0
1.889188231E0,3.284149170E-1,9.413364410E0,2.175374985E0
1.894084533E0,3.762713671E-1,9.430113792E0,2.036292076E0
1.898980887E0,4.384847581E-1,9.492327690E0,1.840080619E0
1.903877189E0,5.057829022E-1,9.595218658E0,1.641476393E0
1.908773491E0,4.986044168E-1,9.726823807E0,1.468894005E0
1.913669845E0,5.344967842E-1,9.820143700E0,1.444965720E0
1.918566147E0,4.839483798E-1,9.884750366E0,1.548156261E0
1.923462449E0,4.504488707E-1,9.927821159E0,1.631905079E0
1.928358804E0,4.384847581E-1,9.894321442E0,1.557727575E0
1.933255106E0,4.624129832E-1,9.820143700E0,1.483250976E0
1.938151408E0,5.153541565E-1,9.748359680E0,1.428215981E0
1.943047762E0,4.938187599E-1,9.643074989E0,1.490429401E0
1.947944064E0,5.225326419E-1,9.674181938E0,1.375573874E0
1.952840366E0,5.847460628E-1,9.700503349E0,1.181755304E0
1.957736668E0,6.565307379E-1,9.664610863E0,9.230313301E-1
1.962633022E0,6.182455420E-1,9.513862610E0,9.637092948E-1
1.967529324E0,6.900302172E-1,9.535398483E0,9.517452121E-1
1.972425626E0,7.019943595E-1,9.590433121E0,9.445667267E-1
1.977321981E0,6.900302172E-1,9.650253296E0,8.991031051E-1
1.982218283E0,6.924230456E-1,9.600004196E0,9.589236975E-1
1.987114585E0,6.637091637E-1,9.566504478E0,1.066899776E0
1.992010939E0,6.900302172E-1,9.662218094E0,1.095613718E0
1.996907241E0,7.594220638E-1,9.698110580E0,1.145862937E0
2.001803543E0,8.144569993E-1,9.748359680E0,1.112363458E0
2.006699845E0,8.359923959E-1,9.791430473E0,1.090828061E0
2.011596199E0,7.857431173E-1,9.868000984E0,1.117149115E0
2.016492501E0,6.780661345E-1,9.865608215E0,1.299003601E0
2.021388804E0,6.278168559E-1,9.786644936E0,1.459322691E0
2.026285158E0,6.182455420E-1,9.688538551E0,1.411466241E0
2.031181460E0,6.541379094E-1,9.628718376E0,1.210469127E0
2.036077762E0,7.378866673E-1,9.466006279E0,1.062114120E0
2.040974116E0,8.288139701E-1,9.293423653E0,9.230313301E-1
2.045870418E0,8.790631890E-1,9.111569405E0,9.254241586E-1
2.050766720E0,9.628120065E-1,9.068498611E0,8.512466550E-1
2.055663074E0,9.843474030E-1,9.104391098E0,7.651050687E-1
2.060577554E0,1.022632599E0,9.269495964E0,5.138586760E-1
2.065455679E0,9.005986452E-1,9.281459808E0,8.368897438E-1
2.070352033E0,8.527421951E-1,9.501898766E0,1.153041363E0
2.075248335E0,6.708876491E-1,9.803394318E0,1.631905079E0
2.080147918E0,4.552344978E-1,1.003101158E1,2.076970100E0
2.085040991E0,4.648058116E-1,1.023679447E1,2.283051968E0
2.089940626E0,5.656034350E-1,1.024397278E1,2.539083958E0
2.094833595E0,7.091727853E-1,1.027029419E1,2.673381090E0
2.099733335E0,7.689933777E-1,1.035643578E1,2.833700180E0
2.104626251E0,8.192426562E-1,1.042343426E1,2.891128063E0
2.109522554E0,9.771689177E-1,1.038275623E1,2.948555708E0
2.114418908E0,1.195214868E0,1.029182911E1,2.879163742E0
2.119315210E0,1.403390527E0,1.028465080E1,2.740380049E0
2.124211564E0,1.601994753E0,1.033729267E1,2.586940289E0
2.129107866E0,1.690828323E0,1.037797070E1,2.450549603E0
2.134004168E0,1.750648856E0,1.026550865E1,2.519941330E0
2.138900470E0,1.772184253E0,1.024158001E1,2.565404892E0
2.143796824E0,1.798505306E0,1.042104149E1,2.359622240E0
2.148693126E0,1.796112537E0,1.047129059E1,2.201695919E0
2.153589481E0,1.834397674E0,1.035882854E1,2.076970100E0
2.158485783E0,1.793719649E0,1.027268696E1,2.117947102E0
2.163382085E0,1.769791484E0,1.021047306E1,2.280659199E0
2.168278439E0,1.793719649E0,1.008365345E1,2.515155792E0
2.173174741E0,1.803290963E0,1.002383327E1,2.551048040E0
2.178071043E0,1.765005827E0,9.932606697E0,2.488834620E0
2.182967397E0,1.695613980E0,9.824930191E0,2.321336985E0
2.187863699E0,1.499103427E0,9.585647583E0,2.536691189E0
2.192760001E0,1.374676585E0,9.331708908E0,2.795415163E0
2.197656356E0,1.429711580E0,9.214461327E0,2.769093990E0
2.202552658E0,1.503889084E0,9.082855225E0,2.445763826E0
2.207449012E0,1.508674622E0,8.991928101E0,1.940579176E0
2.212345314E0,1.587637782E0,8.979964256E0,1.377966762E0
2.217241616E0,1.659721613E0,9.046963692E0,9.804590940E-1
2.222137970E0,1.743470430E0,9.090034485E0,9.182456732E-1
2.227034272E0,1.815255046E0,9.168996811E0,1.021436214E0
2.231948751E0,2.054537296E0,9.504291534E0,1.007079244E0
2.236826929E0,2.377867460E0,9.971191406E0,7.818548083E-1
2.241723231E0,2.511865616E0,1.048086262E1,9.373882413E-1
2.246619533E0,2.487937450E0,1.066301632E1,2.156232357E0
2.251515887E0,2.452044964E0,1.052423191E1,4.112065792E0
2.256412189E0,2.392224550E0,1.047607708E1,4.880460739E0
2.261326720E0,2.179263115E0,1.105783176E1,4.272384644E0
2.266204845E0,1.966002941E0,1.101715374E1,4.392324924E0
2.271119376E0,2.001895189E0,1.070369434E1,4.361218452E0
2.275997501E0,2.270190477E0,1.036122131E1,4.047459602E0
2.280893804E0,2.236690998E0,1.015543842E1,3.396312714E0
2.285790106E0,2.013859272E0,9.956833839E0,2.716451883E0
2.290704637E0,1.774577141E0,9.604789734E0,2.311765671E0
2.295582762E0,1.424925923E0,9.073284149E0,2.196910381E0
2.300479116E0,9.795617461E-1,8.563314438E0,2.189731836E0
2.305375418E0,4.480560422E-1,8.082057953E0,2.134696960E0
2.310289949E0,-5.204389244E-2,7.598408222E0,2.026720762E0
2.315168074E0,-3.921238184E-1,7.011867523E0,1.988435626E0
2.320064376E0,-5.380859971E-1,6.468397617E0,2.132304192E0
2.324960731E0,-6.460621357E-1,5.994319916E0,2.206481695E0
2.329857033E0,-7.441678643E-1,5.594718456E0,2.285444736E0
2.334753387E0,-7.178468108E-1,5.259424210E0,2.431406975E0
2.339747241E0,-7.561319470E-1,5.072783947E0,2.608475685E0
2.344545939E0,-8.374879360E-1,5.103890896E0,2.848057270E0
2.349442345E0,-1.036092162E0,5.630610943E0,3.005983353E0
2.354338647E0,-1.040877819E0,6.446862221E0,2.869592667E0
2.359235001E0,-6.723831892E-1,7.306483746E0,2.433799744E0
2.364131304E0,-2.093719877E-2,7.799704552E0,1.775474429E0
2.369027606E0,5.967101455E-1,7.979166031E0,1.243968725E0
2.373923960E0,9.532406926E-1,8.077271461E0,8.991031051E-1
2.378820262E0,1.154536963E0,8.309675217E0,7.579265833E-1
2.383716616E0,1.295713425E0,8.699705124E0,7.914260626E-1
2.388710470E0,1.369890928E0,9.176176071E0,9.110672474E-1
2.393509220E0,1.295713425E0,9.662218094E0,1.131505966E0
2.398405574E0,1.204786181E0,9.990333557E0,1.452144265E0
2.403301876E0,1.233500123E0,1.021525860E1,1.758724689E0
2.408198231E0,1.314856052E0,1.028465080E1,1.945364833E0
2.413094533E0,1.396211982E0,1.031575775E1,1.976471543E0
2.417990887E0,1.599601984E0,1.026311588E1,1.890329838E0
2.422887189E0,1.841576099E0,1.007886791E1,1.756331801E0
2.427783543E0,1.992323995E0,9.887143135E0,1.737189293E0
2.432679845E0,2.152642965E0,9.736394882E0,1.765903115E0
2.437576199E0,2.193620205E0,9.652647018E0,1.667797327E0
2.442472501E0,2.236690998E0,9.552147865E0,1.476072431E0
2.447368804E0,2.306082726E0,9.458827972E0,1.234397411E0
2.452265158E0,2.387438774E0,9.379565239E0,1.069292665E0
2.457161460E0,2.411366940E0,9.319745064E0,1.098006487E0
2.462057814E0,2.301297188E0,9.295816422E0,1.224826097E0
2.466954116E0,2.179263115E0,9.331708908E0,1.320538998E0
2.471850470E0,2.033001900E0,9.300602913E0,1.366002679E0
2.476746772E0,1.918146491E0,9.377172470E0,1.351645708E0
2.481643126E0,1.877468467E0,9.413364410E0,1.358824134E0
2.486539429E0,1.834397674E0,9.381958008E0,1.411466241E0
2.491435731E0,1.729113460E0,9.338887215E0,1.591227055E0
2.496332085E0,1.523031592E0,9.326923370E0,1.715653777E0
2.501228387E0,1.329213023E0,9.334101677E0,1.722832322E0
2.506124741E0,1.295713425E0,9.338887215E0,1.677368641E0
2.511021043E0,1.278963685E0,9.394221306E0,1.631905079E0
2.515917397E0,1.298106313E0,9.454042435E0,1.703689694E0
2.520831876E0,1.434497118E0,9.276674271E0,1.926222205E0
2.525710054E0,1.650150299E0,9.216854095E0,2.318944216E0
2.530606356E0,1.525424480E0,9.336494446E0,2.661117792E0
2.535502710E0,1.338784218E0,9.851250648E0,2.898306370E0
2.540417189E0,1.362712502E0,1.025115108E1,3.202194929E0
2.545295366E0,1.551745534E0,1.023918724E1,3.465704441E0
2.550191668E0,1.657328725E0,1.020808029E1,3.492025614E0
2.555088022E0,1.858325839E0,1.034925747E1,3.489632607E0
2.559984324E0,2.140678883E0,1.002622604E1,3.518346548E0
2.564880626E0,2.035394669E0,9.207282066E0,3.503989697E0
2.569776981E0,1.647757530E0,9.147461891E0,3.539881945E0
2.574673283E0,1.570888042E0,9.257532120E0,3.750450373E0
2.579569637E0,1.501496196E0,9.219246864E0,3.930211306E0
2.584465939E0,1.410568953E0,9.054141998E0,3.923032761E0
2.589459793E0,1.369890928E0,8.862715721E0,3.824927092E0
2.594258543E0,1.381855130E0,8.737990379E0,3.609273911E0
2.599154949E0,1.444068432E0,8.757132530E0,3.300599813E0
2.604051251E0,1.546959877E0,8.793025017E0,3.082553864E0
2.608947606E0,1.582852125E0,8.773882866E0,2.821736097E0
2.613843908E0,1.760220170E0,8.908179283E0,2.598904610E0
2.618740262E0,2.191227436E0,8.910572052E0,2.352443695E0
2.623636564E0,2.330011129E0,8.836395264E0,1.954936147E0
2.628532918E0,2.248655081E0,8.951250076E0,1.667797327E0
2.633429220E0,2.186441660E0,9.121140480E0,1.897508383E0
2.638325574E0,2.111965179E0,9.279067039E0,2.505584478E0
2.643221876E0,1.896611094E0,9.590433121E0,3.245564699E0
2.648118231E0,1.800898194E0,9.952048302E0,3.956532240E0
2.653014533E0,1.698006749E0,1.018893814E1,4.492823601E0
2.657910887E0,1.659721613E0,1.024636555E1,4.722534657E0
2.662807189E0,1.745863199E0,1.017697334E1,4.689034939E0
2.667703543E0,1.870290041E0,1.013390255E1,4.509573460E0
2.672599845E0,1.989931107E0,1.019372368E1,4.207778454E0
2.677496199E0,2.111965179E0,1.031815052E1,3.812962770E0
2.682392501E0,2.246262312E0,1.033489990E1,3.492025614E0
2.687288856E0,2.210369825E0,1.016979504E1,3.247957706E0
2.692203387E0,1.994716763E0,9.923035622E0,3.147160053E0
2.697081512E0,1.736291885E0,9.700503349E0,3.216551781E0
2.701977814E0,1.341177106E0,9.489934921E0,3.410669565E0
2.706874168E0,1.013061285E0,9.334101677E0,3.621237993E0
2.711770470E0,7.474579811E-1,9.240781784E0,3.647558928E0
2.716666824E0,3.906283081E-1,9.173783302E0,3.487239838E0
2.721563179E0,4.845465720E-2,9.183354378E0,3.274278641E0
2.726459481E0,-9.780662507E-2,9.257532120E0,3.082553864E0
2.731373491E0,-1.241276711E-1,9.293423653E0,2.912663460E0
2.736252137E0,-2.365903407E-1,9.374779701E0,2.726023197E0
2.741148491E0,-2.892324328E-1,9.399007797E0,2.666202545E0
2.746044793E0,-2.389831543E-1,9.410971642E0,2.886342287E0
2.750941147E0,5.802594870E-2,9.291030884E0,3.367598772E0
2.755837449E0,5.273182988E-1,9.140283585E0,3.642773390E0
2.760751981E0,9.484550953E-1,9.094820023E0,3.575774431E0
2.765630106E0,1.290927768E0,9.216854095E0,3.276671410E0
2.770544637E0,1.561316729E0,9.415757179E0,2.927020311E0
2.775422762E0,1.939681888E0,8.934500694E0,2.630011082E0
2.780319116E0,1.422533035E0,8.912964821E0,2.290230274E0
2.785215470E0,1.333998680E0,9.025427818E0,2.146661043E0
2.790129949E0,1.631007791E0,9.509077072E0,1.952543259E0
2.795008126E0,1.748256087E0,1.011954594E1,1.495215058E0
2.799904429E0,1.738684773E0,1.060798073E1,1.174576759E0
2.804800783E0,2.004287958E0,1.091186905E1,1.083649516E0
2.809697085E0,2.399402857E0,1.098843956E1,1.054935694E0
2.814593439E0,2.411366940E0,1.092383385E1,8.967102766E-1
2.819489741E0,2.092822552E0,1.058166027E1,9.062815905E-1
2.824386095E0,1.719542146E0,1.020329475E1,1.287039518E0
2.829282397E0,1.295713425E0,1.004776096E1,1.799402595E0
2.834178751E0,9.173483849E-1,9.975976944E0,2.302194595E0
2.839075106E0,6.062814593E-1,9.868000984E0,2.675773859E0
2.843971408E0,4.695914388E-1,9.338887215E0,2.757129908E0
2.848867762E0,2.446661144E-1,9.168996811E0,2.819343328E0
2.853764064E0,5.324030295E-2,8.901000977E0,2.900699139E0
2.858660418E0,-1.049850956E-1,8.737990379E0,2.960519791E0
2.863556720E0,-3.849453330E-1,8.915358543E0,3.094517946E0
2.868453074E0,-4.040879309E-1,8.877073288E0,3.348456144E0
2.873349429E0,-5.524429083E-1,8.350353241E0,3.372384310E0
2.878245731E0,-6.556333899E-1,7.828418255E0,3.480061531E0
2.883142085E0,-8.446664214E-1,7.191628456E0,3.427419424E0
2.888038387E0,-1.201496124E0,7.086045265E0,3.228815079E0
2.892934741E0,-1.323530078E0,7.100401878E0,3.180659533E0
2.897831095E0,-1.352243900E0,7.069295406E0,3.013161898E0
2.902727397E0,-1.273280740E0,6.966403961E0,2.769093990E0
2.907623751E0,-1.119840980E0,6.636194706E0,2.464906454E0
2.912520054E0,-9.332008362E-1,6.095117569E0,2.057827473E0
2.917416408E0,-1.239781260E0,6.521039963E0,1.763510346E0
2.922312710E0,-1.464706540E0,7.490731239E0,1.947757602E0
2.927209064E0,-1.323530078E0,8.256733894E0,2.476870537E0
2.932105418E0,-1.170090318E0,8.675776482E0,2.953341246E0
2.937001720E0,-9.978070259E-1,8.991928101E0,3.197409153E0
2.941898074E0,-7.537391186E-1,9.252745628E0,3.358027458E0
2.946794376E0,-4.878367186E-1,9.635896683E0,3.326920748E0
2.951690731E0,-2.892324328E-1,9.987940788E0,3.336492062E0
2.956587085E0,-2.102692872E-1,1.022483063E1,3.386741400E0
2.961483387E0,-8.344969153E-2,1.032054329E1,3.570988655E0
2.966379741E0,1.561316848E-1,1.024158001E1,3.743271828E0
2.971276043E0,3.810569942E-1,1.012672424E1,3.745664835E0
2.976172397E0,6.014958024E-1,9.983155251E0,3.664308786E0
2.981068751E0,8.694919348E-1,9.870393753E0,3.527917862E0
2.985965054E0,1.015454054E0,9.812965393E0,3.417848110E0
2.990861408E0,1.082752228E0,9.774680138E0,3.468097210E0
2.995757710E0,1.185643673E0,9.801001549E0,3.609273911E0
3.000654064E0,1.295713425E0,9.908679008E0,3.726522207E0
3.005550418E0,1.271785259E0,1.010997486E1,3.783949852E0
3.010450314E0,1.216750264E0,1.030857944E1,3.781557083E0
3.015343074E0,1.252642632E0,1.045932674E1,3.791427374E0
3.020239376E0,1.389033556E0,1.060798073E1,3.800998688E0
3.025135731E0,1.561316729E0,1.070847988E1,3.707379580E0
3.030032085E0,1.760220170E0,1.084726334E1,3.539881945E0
3.034928387E0,1.910967946E0,1.103629589E1,3.291028500E0
3.039824741E0,2.116750717E0,1.126869869E1,2.960519791E0
3.044721095E0,2.303689957E0,1.149841022E1,2.685345173E0
3.049617397E0,2.444866419E0,1.182413292E1,2.582154751E0
3.054513751E0,2.629113913E0,1.228385448E1,2.462513685E0
3.059410054E0,2.696112871E0,1.275793171E1,2.366800785E0
3.064306408E0,2.660220623E0,1.311207008E1,2.290230274E0
3.069202762E0,2.751446962E0,1.323410416E1,2.388336182E0
3.074099064E0,2.835195780E0,1.339950752E1,2.862414122E0
3.078995418E0,2.825624466E0,1.357179070E1,3.336492062E0
3.083891772E0,2.686541557E0,1.355025578E1,3.769593000E0
3.088788074E0,2.473580360E0,1.333011627E1,4.167100430E0
3.093684429E0,2.325225353E0,1.296371460E1,4.327419758E0
3.098580731E0,2.258226395E0,1.243938732E1,4.351646900E0
3.103477085E0,2.123929262E0,1.182174015E1,4.253242016E0
3.108373439E0,1.954038739E0,1.124237823E1,4.126422882E0
3.113269741E0,1.741077542E0,1.070847988E1,4.006781578E0
3.118166095E0,1.556531072E0,1.022722340E1,3.853640795E0
3.123062449E0,1.515853167E0,9.779465675E0,3.585345745E0
3.127958751E0,1.415354609E0,9.451649666E0,3.190230846E0
3.132855106E0,1.247856975E0,9.157032967E0,2.907877684E0
3.137751460E0,1.192822099E0,8.951250076E0,2.871985435E0
3.142647762E0,1.080359459E0,8.771489143E0,2.958127022E0
3.147544116E0,8.096713424E-1,8.726025581E0,2.989233732E0
3.152440418E0,5.368895531E-1,8.711668968E0,3.161516905E0
3.157336772E0,4.001995921E-1,8.685347557E0,3.441776276E0
3.162233126E0,3.140579760E-1,8.606385231E0,3.630809307E0
3.167129429E0,2.135594189E-1,8.460422516E0,3.700201035E0
3.172025783E0,5.563312769E-2,8.343173981E0,3.700201035E0
3.176922137E0,1.734796353E-2,8.295317650E0,3.683451414E0
3.181836616E0,2.691925503E-2,8.319246292E0,3.494418383E0
3.186714793E0,-1.794616925E-3,8.412566185E0,3.108874798E0
3.191611147E0,-1.336989701E-1,8.493922234E0,2.788236618E0
3.196507449E0,-2.389831543E-1,8.565707207E0,2.699702263E0
3.201421981E0,-2.820539773E-1,8.680562019E0,2.678166628E0
3.206300158E0,-3.490529954E-1,8.723632812E0,2.766701221E0
3.211214637E0,-3.610171080E-1,8.642276764E0,2.888735056E0
3.216092814E0,-4.112663865E-1,8.417351723E0,2.989233732E0
3.220989168E0,-5.069792867E-1,8.024629593E0,3.029911757E0
3.225885470E0,-6.460621357E-1,6.841977119E0,2.862414122E0
3.230800001E0,-1.680060625E0,6.583552361E0,2.649153709E0
3.235678179E0,-2.077568293E0,7.062117100E0,2.984447956E0
3.240592710E0,-1.993819475E0,7.727920055E0,3.286242723E0
3.245470835E0,-2.048854351E0,8.402995110E0,3.281457186E0
3.250385366E0,-2.046461582E0,8.757132530E0,3.329313517E0
3.255263491E0,-1.902892232E0,8.908179283E0,3.472882986E0
3.260159845E0,-1.713560104E0,9.171390533E0,3.645166159E0
3.265056199E0,-1.333101273E0,9.461220741E0,3.649951935E0
3.269952501E0,-8.398807645E-1,9.645467758E0,3.501596928E0
3.274848856E0,-4.447658956E-1,9.767501831E0,3.341277838E0
3.279745210E0,-1.241276711E-1,9.820143700E0,3.123231649E0
3.284641512E0,1.226321608E-1,9.971191406E0,2.836092949E0
3.289557501E0,4.025924206E-1,1.021047306E1,2.589333296E0
3.294434220E0,6.182455420E-1,1.039472103E1,2.373979092E0
3.299330522E0,8.503493667E-1,1.041147041E1,2.321336985E0
3.304226876E0,1.116251707E0,1.031575775E1,2.323729992E0
3.309123231E0,1.348355532E0,1.022483063E1,2.417049885E0
3.314019533E0,1.456032634E0,1.020329475E1,2.618046999E0
3.318915887E0,1.515853167E0,1.016261673E1,2.850450039E0
3.323812241E0,1.477568030E0,1.010758209E1,3.106482029E0
3.328708543E0,1.460818172E0,1.000229740E1,3.319742203E0
3.333604897E0,1.441675663E0,9.939785004E0,3.422633648E0
3.338501251E0,1.458425403E0,9.860821724E0,3.369991541E0
3.343397554E0,1.441675663E0,9.860821724E0,3.245564699E0
3.348293908E0,1.398604870E0,9.875179291E0,3.144767046E0
3.353190262E0,1.403390527E0,9.934999466E0,3.015554667E0
3.358086564E0,1.470389485E0,1.000469017E1,2.874378204E0
3.362982918E0,1.515853167E0,1.002144051E1,2.761915445E0
3.367879272E0,1.489532113E0,9.964012146E0,2.824128866E0
3.372775626E0,1.417747378E0,9.923035622E0,3.005983353E0
3.377671929E0,1.396211982E0,9.868000984E0,3.187838078E0
3.382568283E0,1.374676585E0,9.789037704E0,3.358027458E0
3.387464637E0,1.324427366E0,9.707681656E0,3.482454300E0
3.392360939E0,1.252642632E0,9.609575272E0,3.472882986E0
3.397257293E0,1.240678549E0,9.444471359E0,3.465704441E0
3.402153647E0,1.185643673E0,9.334101677E0,3.518346548E0
3.407050001E0,1.142572761E0,9.240781784E0,3.547060490E0
3.411946304E0,1.123430252E0,9.171390533E0,3.465704441E0
3.416842658E0,1.130608678E0,9.049356461E0,3.381955624E0
3.421739012E0,1.176072359E0,8.917751312E0,3.422633648E0
3.426635314E0,1.166501045E0,8.841180801E0,3.566203117E0
3.431531668E0,1.147358418E0,8.776275635E0,3.791427374E0
3.436428022E0,1.113858938E0,8.804988861E0,3.985246181E0
3.441342501E0,1.061216831E0,8.829216003E0,4.071387768E0
3.446220679E0,1.041775107E0,8.769096375E0,4.090530396E0
3.451135210E0,1.066002488E0,8.694919586E0,4.083351612E0
3.456013335E0,1.070788145E0,8.606385231E0,4.076173306E0
3.460927866E0,1.061216831E0,8.568099976E0,4.037888050E0
3.465806043E0,1.058824062E0,8.489136696E0,3.978067636E0
3.470702397E0,1.164108157E0,8.395816803E0,3.937389612E0
3.475598699E0,1.307677627E0,8.266604424E0,3.839283943E0
3.480495054E0,1.405783296E0,8.256733894E0,3.688236952E0
3.485391408E0,1.408176184E0,8.410173416E0,3.604488134E0
3.490287710E0,1.424925923E0,8.563314438E0,3.714558125E0
3.495184064E0,1.417747378E0,8.649456024E0,3.867997885E0
3.500080418E0,1.360319614E0,8.668598175E0,4.011567116E0
3.504976720E0,1.389033556E0,8.620741844E0,4.071387768E0
3.509873074E0,1.420140266E0,8.572885513E0,4.109673023E0
3.514769429E0,1.345962763E0,8.572885513E0,4.143172264E0
3.519665783E0,1.286142230E0,8.551349640E0,4.181457520E0
3.524562085E0,1.176072359E0,8.498707771E0,4.229313850E0
3.529458439E0,1.192822099E0,8.405387878E0,4.102494240E0
3.534354793E0,1.276570916E0,8.297710419E0,3.966103554E0
3.539348647E0,1.324427366E0,8.239983559E0,4.001996040E0
3.544147397E0,1.307677627E0,8.273782730E0,4.102494240E0
3.549043804E0,1.250249863E0,8.388637543E0,4.248456478E0
3.553940158E0,1.379462242E0,8.503493309E0,4.265206337E0
3.558836460E0,1.530210137E0,8.656634331E0,4.193421841E0
3.563732814E0,1.515853167E0,8.903393745E0,3.934996843E0
3.568629168E0,1.518245935E0,9.113962173E0,3.791427374E0
3.573525470E0,1.537388563E0,9.257532120E0,3.820141315E0
3.578421824E0,1.568495274E0,9.394221306E0,3.851248026E0
3.583318179E0,1.556531072E0,9.528220177E0,3.771985769E0
3.588214533E0,1.532602906E0,9.688538551E0,3.700201035E0
3.593110835E0,1.446461320E0,9.683753014E0,3.614059448E0
3.598007189E0,1.357926846E0,9.528220177E0,3.724129438E0
3.602903543E0,1.286142230E0,9.305388451E0,3.781557083E0
3.607799897E0,1.226321578E0,8.901000977E0,3.851248026E0
3.612696199E0,1.190429211E0,8.711668968E0,3.844069481E0
3.617592554E0,1.099501967E0,8.450851440E0,3.856033802E0
3.622488908E0,1.049252748E0,8.094021797E0,3.824927092E0
3.627385210E0,1.010668516E0,7.881060600E0,3.661916018E0
3.632281564E0,9.388837814E-1,7.792526245E0,3.563810110E0
3.637177918E0,8.431708813E-1,7.773383617E0,3.549453259E0
3.642074272E0,7.115656137E-1,7.809275627E0,3.594916821E0
3.646970574E0,7.307082415E-1,7.840382576E0,3.645166159E0
3.651866929E0,9.149555564E-1,7.950452328E0,3.477668524E0
3.656763283E0,9.795617461E-1,8.115556717E0,3.334099293E0
3.661659637E0,8.383852243E-1,8.355138779E0,3.482454300E0
3.666555939E0,6.804589629E-1,8.541778564E0,3.865604877E0
3.671452293E0,5.081757307E-1,8.668598175E0,4.128815651E0
3.676348647E0,4.336991012E-1,8.726025581E0,4.140779495E0
3.681244949E0,4.528416991E-1,8.735597610E0,3.930211306E0
3.686141304E0,4.914259613E-1,8.754739761E0,3.666701555E0
3.691055835E0,4.552344978E-1,8.737990379E0,3.484847069E0
3.695934012E0,4.866403043E-1,8.630312920E0,3.348456144E0
3.700848491E0,5.823532343E-1,8.431708336E0,3.163909674E0
3.705726668E0,7.283154130E-1,8.228019714E0,2.967698336E0
3.710641199E0,6.828517914E-1,8.086843491E0,2.845664263E0
3.715519324E0,5.536393523E-1,7.945666790E0,2.857628345E0
3.720433856E0,3.906283081E-1,7.792526245E0,2.919841766E0
3.725312033E0,2.997010350E-1,7.641479015E0,2.994019270E0
3.730208387E0,2.566302419E-1,7.569694519E0,2.943770170E0
3.735104689E0,8.913264424E-2,7.629515171E0,2.855235577E0
3.740004533E0,8.913264424E-2,7.720741272E0,2.838485956E0
3.744897397E0,2.111666054E-1,7.914559841E0,2.819343328E0
3.749793751E0,2.207378894E-1,7.993523121E0,2.828914642E0
3.754690054E0,2.398804724E-1,7.826025486E0,2.893520832E0
3.759586408E0,4.480560422E-1,7.572087288E0,2.924627542E0
3.764482762E0,6.828517914E-1,7.476374149E0,2.836092949E0
3.769379116E0,9.005986452E-1,7.711170197E0,2.603690147E0
3.774275418E0,1.005882859E0,8.146663666E0,2.350050926E0
3.779171772E0,1.140179992E0,8.630312920E0,2.366800785E0
3.784068126E0,1.216750264E0,9.085248947E0,2.467299223E0
3.788967866E0,1.288534999E0,9.506684303E0,2.728415966E0
3.793860783E0,1.338784218E0,9.784252167E0,3.173480988E0
3.798757137E0,1.372283816E0,1.002144051E1,3.786641836E0
3.803653491E0,1.384247899E0,1.016500950E1,4.444967270E0
3.808549845E0,1.463211060E0,1.016022396E1,4.880460739E0
3.813446147E0,1.420140266E0,1.009561825E1,4.947759151E0
3.818342501E0,1.345962763E0,1.001426220E1,4.739284515E0
3.823238856E0,1.403390527E0,9.789037704E0,4.552644253E0
3.828135158E0,1.345962763E0,9.461220741E0,4.272384644E0
3.833031512E0,1.204786181E0,9.018249512E0,3.923032761E0
3.837927866E0,1.121037364E0,8.620741844E0,3.781557083E0
3.842824220E0,9.173483849E-1,8.381459236E0,3.925425529E0
3.847720522E0,6.517450809E-1,8.192127228E0,4.071387768E0
3.852616876E0,3.619144261E-1,7.969594955E0,4.076173306E0
3.857513231E0,1.495514158E-2,7.711170197E0,4.097708702E0
3.862409585E0,-1.456630826E-1,7.371089935E0,4.193421841E0
3.867305887E0,5.383851007E-3,6.959225655E0,4.322634220E0
3.872202241E0,1.944168359E-1,6.631408691E0,4.399503708E0
3.877098595E0,2.279163599E-1,6.466004848E0,4.380361080E0
3.881994949E0,2.135594189E-1,6.439683914E0,4.267599106E0
3.886891251E0,7.477571070E-2,6.624230385E0,4.071387768E0
3.891805783E0,-7.118647546E-2,6.949654102E0,3.978067636E0
3.896683960E0,-2.294118702E-1,7.323233604E0,3.985246181E0
3.901580314E0,-3.394817114E-1,7.718348503E0,4.013959885E0
3.906476616E0,-3.538386524E-1,8.110771179E0,3.951746702E0
3.911372970E0,-3.107678294E-1,8.568099976E0,3.834498405E0
3.916269324E0,-2.413759828E-1,9.113962173E0,3.762414455E0
3.921183804E0,-7.866404206E-2,9.710074425E0,3.736093521E0
3.926061981E0,1.872383654E-1,1.050987530E1,3.503989697E0
3.930976512E0,7.522436380E-1,1.160130119E1,3.080160856E0
3.935854689E0,1.570888042E0,1.219771290E1,3.116053343E0
3.940751043E0,2.210369825E0,1.221924782E1,3.084946632E0
3.945647345E0,2.700898647E0,1.213280678E1,2.950948477E0
3.950543699E0,3.084049225E0,1.187438202E1,2.977269650E0
3.955440054E0,3.335594654E0,1.144337559E1,3.075375319E0
3.960354585E0,3.440878868E0,1.095733356E1,3.075375319E0
3.965232710E0,3.455235958E0,1.043779182E1,3.008376360E0
3.970129064E0,3.383451223E0,9.942177773E0,3.101696253E0
3.975025418E0,3.294916868E0,9.492327690E0,3.405884027E0
3.979921772E0,3.143869877E0,9.142676353E0,3.695415497E0
3.984818074E0,2.909373283E0,8.860322952E0,3.982853174E0
3.989714429E0,2.653042078E0,8.673383713E0,4.269991875E0
3.994610783E0,2.430509567E0,8.673383713E0,4.423431873E0
3.999507085E0,2.085644007E0,8.704490662E0,4.562215328E0
4.004403439E0,1.851147413E0,8.850751877E0,4.507180691E0
4.009362033E0,1.592423439E0,8.927322388E0,4.464109898E0
4.014196147E0,1.338784218E0,9.101998329E0,4.250849247E0
4.019092501E0,1.142572761E0,9.317352295E0,4.009174347E0
4.023988804E0,1.022632599E0,9.381958008E0,3.870390654E0
4.028885158E0,9.819545746E-1,9.341280937E0,3.647558928E0
4.033781512E0,8.670991063E-1,9.274281502E0,3.456133127E0
4.038677866E0,7.809575200E-1,9.295816422E0,3.372384310E0
4.043574168E0,7.187440991E-1,9.386744499E0,3.358027458E0
4.048470522E0,5.775675774E-1,9.374779701E0,3.480061531E0
4.053366876E0,4.528416991E-1,9.291030884E0,3.594916821E0
4.058263231E0,4.049852192E-1,9.195318222E0,3.673880100E0
4.063159533E0,3.714857101E-1,9.171390533E0,3.626023531E0
4.068055887E0,3.236292601E-1,9.166604042E0,3.532703638E0
4.072952241E0,2.518445849E-1,9.087641716E0,3.508775234E0
4.077848595E0,1.752742529E-1,8.917751312E0,3.582952738E0
4.082744897E0,1.322034448E-1,8.754739761E0,3.573381424E0
4.087641251E0,7.477571070E-2,8.570492744E0,3.554239035E0
4.092555783E0,2.691925503E-2,8.412566185E0,3.501596928E0
4.097433960E0,-1.265204996E-1,8.271389961E0,3.434597731E0
4.102330262E0,-3.323032558E-1,8.232805252E0,3.401098251E0
4.107226616E0,-3.131606579E-1,8.266604424E0,3.432204962E0
4.112122970E0,-1.911267042E-1,8.347960472E0,3.422633648E0
4.117019324E0,-1.049850956E-1,8.410173416E0,3.369991541E0
4.121933856E0,2.991028363E-3,8.594420433E0,3.305385351E0
4.126811981E0,1.345962733E-1,8.826823235E0,3.173480988E0
4.131726512E0,2.207378894E-1,9.078069687E0,3.135195971E0
4.136604689E0,2.901297510E-1,9.247960091E0,3.161516905E0
4.141519220E0,4.049852192E-1,9.317352295E0,3.228815079E0
4.146397345E0,4.624129832E-1,9.365208626E0,3.209373474E0
4.151293699E0,5.153541565E-1,9.413364410E0,3.218944550E0
4.156190054E0,4.767699242E-1,9.535398483E0,3.247957706E0
4.161104585E0,4.289134443E-1,9.738788605E0,3.178266764E0
4.165982710E0,4.217349887E-1,9.829715729E0,2.994019270E0
4.170897241E0,3.906283081E-1,9.927821159E0,2.759522676E0
4.175775418E0,3.140579760E-1,9.894321442E0,2.759522676E0
4.180671772E0,2.255235314E-1,9.841679573E0,2.879163742E0
4.185568074E0,1.274178028E-1,9.791430473E0,2.970091105E0
4.190482345E0,3.409772366E-2,9.743574142E0,3.092125177E0
4.195360783E0,-7.357929647E-2,9.633503914E0,3.259921789E0
4.200257085E0,-2.126621157E-1,9.489934921E0,3.374777317E0
4.205153439E0,-3.538386524E-1,9.355637550E0,3.360420227E0
4.210049793E0,-4.375874400E-1,9.295816422E0,3.271885872E0
4.214946147E0,-4.639084935E-1,9.216854095E0,3.324527979E0
4.219842449E0,-4.256233275E-1,9.166604042E0,3.465704441E0
4.224738804E0,-4.160520434E-1,9.094820023E0,3.527917862E0
4.229635158E0,-4.615156651E-1,9.056534767E0,3.582952738E0
4.234531512E0,-4.423730969E-1,9.097212791E0,3.621237993E0
4.239525262E0,-3.849453330E-1,8.905786514E0,3.551846027E0
4.244324116E0,-3.705884218E-1,7.969594955E0,3.223730326E0
4.249220522E0,-1.073779166E-1,8.687741280E0,3.175873756E0
4.254116876E0,-3.418745399E-1,9.377172470E0,2.991626501E0
4.259013231E0,-2.509472668E-1,9.549755096E0,3.053839922E0
4.263909533E0,-1.615155302E-2,9.312566757E0,3.147160053E0
4.268805887E0,1.298106313E-1,9.068498611E0,3.051447153E0
4.273702241E0,1.202393398E-1,9.068498611E0,2.888735056E0
4.278598595E0,-1.615155302E-2,9.291030884E0,2.871985435E0
4.283494897E0,-7.627122104E-2,9.535398483E0,3.001197815E0
4.288488647E0,-2.318046987E-1,9.643074989E0,3.068196774E0
4.293287554E0,-3.131606579E-1,9.542576790E0,3.089732170E0
4.298183960E0,-3.107678294E-1,9.389435768E0,3.159124136E0
4.303080262E0,-4.208376706E-1,9.331708908E0,3.209373474E0
4.307976616E0,-5.452644825E-1,9.326923370E0,3.262314558E0
4.312872970E0,-6.364908218E-1,9.247960091E0,3.288635731E0
4.317769324E0,-7.561319470E-1,9.168996811E0,3.319742203E0
4.322665626E0,-8.829515576E-1,9.042177200E0,3.365206003E0
4.327561981E0,-1.014556766E0,9.078069687E0,3.080160856E0
4.332458335E0,-9.667003751E-1,9.106783867E0,2.883949518E0
4.337354689E0,-8.255237937E-1,9.130712509E0,2.790629387E0
4.342251043E0,-7.274180651E-1,9.183354378E0,2.800200701E0
4.347147345E0,-7.298108935E-1,9.343673706E0,2.788236618E0
4.352043699E0,-7.202396393E-1,9.286245346E0,2.678166628E0
4.356940054E0,-5.548357368E-1,9.094820023E0,2.807379246E0
4.361854585E0,-3.083750308E-1,9.106783867E0,2.967698336E0
4.366732710E0,-2.485544533E-1,9.195318222E0,2.924627542E0
4.371647241E0,-2.198405862E-1,9.319745064E0,2.960519791E0
4.376525418E0,-2.150549293E-1,9.432506561E0,3.027518749E0
4.381421772E0,-3.529413417E-2,9.494720459E0,2.998805046E0
4.386318074E0,2.452643216E-2,9.564111710E0,2.879163742E0
4.391232658E0,-9.062815458E-2,9.738788605E0,2.788236618E0
4.396110783E0,-1.839482337E-1,9.925428391E0,2.850450039E0
4.401007137E0,-1.432702541E-1,1.000708294E1,2.936591625E0
4.405903439E0,-7.866404206E-2,9.944570541E0,2.950948477E0
4.410799793E0,5.982056609E-4,9.791430473E0,3.056232691E0
4.415696147E0,4.606183618E-2,9.686145782E0,3.187838078E0
4.420592501E0,8.673982322E-2,9.573683739E0,3.281457186E0
4.425488804E0,1.010967568E-1,9.537791252E0,3.295814037E0
4.430403335E0,1.010967568E-1,9.480362892E0,3.307778120E0
4.435281512E0,1.178465188E-1,9.506684303E0,3.389134169E0
4.440181147E0,1.944168359E-1,9.521040916E0,3.403491020E0
4.445074220E0,4.432703853E-1,9.489934921E0,3.681058645E0
4.449970522E0,6.134598851E-1,9.262317657E0,3.932604074E0
4.454866876E0,2.039881349E-1,9.350852013E0,3.144767046E0
4.459763231E0,3.649054468E-2,9.542576790E0,2.996412039E0
4.464659533E0,-3.529413417E-2,9.791430473E0,2.819343328E0
4.469555887E0,-1.935195327E-1,1.000947666E1,2.584547520E0
4.474452241E0,-2.772683203E-1,1.006451130E1,2.598904610E0
4.479348595E0,-4.902295470E-1,1.000708294E1,2.204088688E0
4.484244949E0,-5.811567903E-1,9.908679008E0,2.043470621E0
4.489141251E0,-4.615156651E-1,9.659825325E0,2.146661043E0
4.494037606E0,-4.375874400E-1,9.430113792E0,2.156232357E0
4.498933960E0,-5.045864582E-1,9.264710426E0,2.309372902E0
4.503830314E0,-6.098706722E-1,9.130712509E0,2.431406975E0
4.508726616E0,-6.050850153E-1,9.042177200E0,2.486441851E0
4.513622970E0,-6.532405615E-1,8.965607643E0,2.630011082E0
4.518519324E0,-7.465606928E-1,8.934500694E0,2.723630428E0
4.523415679E0,-7.824530005E-1,8.970393181E0,2.776272535E0
4.528311981E0,-5.835496187E-1,9.058927536E0,2.893520832E0
4.533208335E0,1.513460279E-1,8.975178719E0,4.231706619E0
4.538104689E0,-4.088735580E-1,9.221639633E0,3.149552822E0
4.543001043E0,-7.537391186E-1,9.369994164E0,2.850450039E0
4.547897397E0,-8.446664214E-1,9.372386932E0,2.943770170E0
4.552793699E0,-1.024128079E0,9.674181938E0,2.718844652E0
4.557690054E0,-1.093519926E0,9.798608780E0,2.376372099E0
4.562586408E0,-1.225424290E0,9.815358162E0,2.038684845E0
4.567482710E0,-1.136590719E0,9.683753014E0,2.335694075E0
4.572379064E0,-8.422735929E-1,9.403793335E0,2.584547520E0
4.577275418E0,-6.843472719E-1,9.164211273E0,2.572583437E0
4.582171772E0,-6.460621357E-1,9.030213356E0,2.505584478E0
4.587068126E0,-6.122635007E-1,8.960822105E0,2.378764868E0
4.591964429E0,-5.931209326E-1,8.941679001E0,2.271087885E0
4.596860783E0,-5.620142221E-1,8.953642845E0,2.268694878E0
4.601775314E0,-6.218347549E-1,8.972785950E0,2.369193554E0
4.606653491E0,-1.615155302E-2,8.632705688E0,3.944568157E0
4.611549793E0,-6.266204119E-1,8.800203323E0,3.003590584E0
4.616446147E0,-1.131805062E0,9.123533249E0,2.790629387E0
4.621342501E0,-1.421635747E0,9.473184586E0,2.579761982E0
4.626238856E0,-1.469492197E0,9.736394882E0,2.409871578E0
4.631153335E0,-1.380957723E0,9.868000984E0,2.371586323E0
4.636031512E0,-1.199103236E0,9.841679573E0,2.364407778E0
4.640946043E0,-9.738788009E-1,9.729216576E0,2.443371058E0
4.645824220E0,-7.848458290E-1,9.580862045E0,2.457727909E0
4.650738699E0,-6.170491576E-1,9.439684868E0,2.486441851E0
4.655616876E0,-4.902295470E-1,9.372386932E0,2.577368975E0
4.660531408E0,-5.045864582E-1,9.434899330E0,2.625225544E0
4.665409585E0,-5.931209326E-1,9.549755096E0,2.639582396E0
4.670305887E0,-7.345965505E-1,9.664610863E0,2.697309256E0
4.675202241E0,-8.039883971E-1,9.801001549E0,2.759522676E0
4.680098595E0,-8.566305041E-1,9.889535904E0,2.769093990E0
4.684994949E0,-9.068797827E-1,9.990333557E0,2.800200701E0
4.689894793E0,-8.781659007E-1,1.009561825E1,2.781058073E0
4.694787606E0,-8.183453679E-1,1.009083176E1,2.814557552E0
4.699683960E0,-9.690931439E-1,1.015304565E1,2.833700180E0
4.704580314E0,-1.189232826E0,1.022243786E1,3.003590584E0
4.709476616E0,-1.237388372E0,1.019133091E1,3.159124136E0
4.714372970E0,-1.246959686E0,1.009801102E1,3.281457186E0
4.719269324E0,-1.234995604E0,9.939785004E0,3.238386393E0
4.724165679E0,-1.191625714E0,9.731609344E0,3.267100334E0
4.729062033E0,-1.146162033E0,9.580862045E0,3.295814037E0
4.733958335E0,-1.050449133E0,9.506684303E0,3.206980467E0
4.738854689E0,-9.858429432E-1,9.473184586E0,3.077768087E0
4.743751043E0,-7.513462901E-1,9.391828537E0,3.609273911E0
4.748647397E0,-9.619147182E-1,9.338887215E0,3.147160053E0
4.753543699E0,-1.100698471E0,9.396614075E0,2.692523718E0
4.758440054E0,-1.206281662E0,9.379565239E0,2.402693033E0
4.763336408E0,-1.294816136E0,9.365208626E0,2.060220242E0
4.768232762E0,-1.251745343E0,9.384351730E0,1.789831281E0
4.773129064E0,-1.249352574E0,9.331708908E0,1.533500195E0
4.778025418E0,-1.256531000E0,9.322137833E0,1.320538998E0
4.782921772E0,-1.194018483E0,9.286245346E0,1.279860973E0
4.787818126E0,-1.060020447E0,9.257532120E0,1.308574915E0
4.792714429E0,-1.100698471E0,9.238389015E0,1.327717423E0
4.797610783E0,-1.155733347E0,9.221639633E0,1.363609791E0
4.802507137E0,-1.199103236E0,9.224032402E0,1.516750455E0
4.807403491E0,-1.306780219E0,9.283852577E0,1.739582062E0
4.812299793E0,-1.251745343E0,9.319745064E0,1.945364833E0
4.817196147E0,-1.275673628E0,9.367601395E0,2.067398787E0
4.822092501E0,-1.440778375E0,9.477970123E0,2.115554333E0
4.826988856E0,-1.620239973E0,9.628718376E0,2.189731836E0
4.831885158E0,-1.682453394E0,9.791430473E0,2.211267233E0
4.836781512E0,-1.646561027E0,9.944570541E0,2.266302109E0
4.841677866E0,-1.615454435E0,1.003101158E1,2.378764868E0
4.846574220E0,-1.591526151E0,1.008843899E1,2.507977247E0
4.851488751E0,-1.555633783E0,1.004297543E1,2.596511602E0
4.856366876E0,-1.464706540E0,9.915857315E0,2.704487801E0
4.861263231E0,-1.541276932E0,9.796216011E0,2.781058073E0
4.866159585E0,-1.581954837E0,9.695717812E0,2.795415163E0
4.871074116E0,-1.656132340E0,9.494720459E0,2.644368172E0
4.875952241E0,-1.713560104E0,9.300602913E0,2.582154751E0
4.880848595E0,-1.751845241E0,9.298210144E0,2.795415163E0
4.885744949E0,-1.675274968E0,9.298210144E0,2.807379246E0
4.890641251E0,-1.689631939E0,9.288638115E0,2.783450842E0
4.895537606E0,-1.838286042E0,9.386744499E0,2.687737942E0
4.900433960E0,-1.965105653E0,9.238389015E0,2.620440006E0
4.905330314E0,-2.020140409E0,9.164211273E0,2.757129908E0
4.910226616E0,-1.936391711E0,9.200103760E0,2.943770170E0
4.915122970E0,-1.960319996E0,9.307781219E0,3.132802963E0
4.920019324E0,-2.051247120E0,9.379565239E0,3.324527979E0
4.924915679E0,-2.067996979E0,9.420542717E0,3.513561010E0
4.929811981E0,-1.933998942E0,9.458827972E0,3.506382465E0
4.934708335E0,-1.814357758E0,9.446864128E0,3.322135210E0
4.939707449E0,-1.821536183E0,9.466006279E0,3.161516905E0
4.944701772E0,-1.972284079E0,9.509077072E0,2.955734253E0
4.949696043E0,-1.878963947E0,9.573683739E0,2.917448997E0
4.954690314E0,-1.727917075E0,9.604789734E0,2.888735056E0
4.959684585E0,-1.675274968E0,9.678967476E0,2.754737139E0
4.964678804E0,-1.718345761E0,9.760323524E0,2.598904610E0
4.969673074E0,-1.878963947E0,9.923035622E0,2.421835661E0
4.974667345E0,-1.972284079E0,1.007168961E1,2.230409861E0
4.979661616E0,-2.005783558E0,1.015065289E1,2.105983019E0
4.984655835E0,-2.015354872E0,1.020808029E1,1.959721804E0
4.989650106E0,-1.989033818E0,1.030379295E1,1.768295884E0
4.994644376E0,-1.800000787E0,1.029182911E1,1.488036633E0
4.999638647E0,-1.773679733E0,1.021765137E1,1.454537034E0
5.004632866E0,-1.898106575E0,1.014826012E1,1.629512191E0
5.009627137E0,-1.979462504E0,1.000947666E1,2.024327993E0
5.014621408E0,-1.991426587E0,9.851250648E0,2.304587364E0
5.019615679E0,-2.003390789E0,9.726823807E0,2.414657116E0
5.024609897E0,-2.094317913E0,9.638289452E0,2.412264347E0
5.029604168E0,-2.144567251E0,9.561718941E0,2.438585281E0
5.034598439E0,-2.168495417E0,9.492327690E0,2.484049082E0
5.039592658E0,-2.209173441E0,9.482755661E0,2.601297379E0
5.044586929E0,-2.201995134E0,9.487542152E0,2.714059114E0
5.049581199E0,-2.206780672E0,9.535398483E0,2.783450842E0
5.054575470E0,-2.197209358E0,9.616754532E0,2.807379246E0
5.059569689E0,-2.199602127E0,9.729216576E0,2.737987280E0
5.064563960E0,-2.187638044E0,9.839286804E0,2.641975403E0
5.069577033E0,-2.113460541E0,9.961619377E0,2.644368172E0
5.074552501E0,-2.106282234E0,1.007168961E1,2.570190668E0
5.079546720E0,-2.115853310E0,1.016500950E1,2.390728951E0
5.084540991E0,-2.132603168E0,1.020808029E1,2.347658157E0
5.089535262E0,-2.089532375E0,1.016022396E1,2.362015009E0
5.094529533E0,-2.060818434E0,1.010279655E1,2.263909340E0
5.099523751E0,-2.070389748E0,1.017218781E1,2.161017895E0
5.104518022E0,-2.087139606E0,1.026790142E1,2.158625126E0
5.109530835E0,-2.113460541E0,1.030140018E1,2.194517374E0
5.114506564E0,-2.130210400E0,1.033968544E1,2.194517374E0
5.119500783E0,-2.163709879E0,1.038275623E1,2.187339067E0
5.124495054E0,-2.120639086E0,1.036839962E1,2.211267233E0
5.129508126E0,-2.072782516E0,1.035165024E1,2.249552488E0
5.134483595E0,-2.149353027E0,1.036361408E1,2.088934183E0
5.139496356E0,-2.130210400E0,1.038275623E1,1.969292998E0
5.144472085E0,-2.144567251E0,1.037797070E1,1.813759565E0
5.149466356E0,-2.156531334E0,1.037557793E1,1.670190215E0
5.154460574E0,-2.137388945E0,1.035165024E1,1.511964798E0
5.159454845E0,-2.075175524E0,1.026072216E1,1.478465319E0
5.164449116E0,-1.984248161E0,1.014108181E1,1.636690736E0
5.169443387E0,-1.890928149E0,9.990333557E0,1.849651933E0
5.174437606E0,-1.852642894E0,9.815358162E0,1.971685886E0
5.179431876E0,-1.835893154E0,9.643074989E0,2.026720762E0
5.184421720E0,-1.852642894E0,9.497113228E0,2.079362869E0
5.189318074E0,-1.989033818E0,9.422935486E0,2.117947102E0
5.194214376E0,-2.036890268E0,9.386744499E0,2.110768557E0
5.199110731E0,-1.953141451E0,9.334101677E0,2.151446581E0
5.204007085E0,-1.814357758E0,9.324530602E0,2.218445778E0
5.208903439E0,-1.682453394E0,9.350852013E0,2.146661043E0
5.213799741E0,-1.538884044E0,9.343673706E0,2.002792597E0
5.218696095E0,-1.400100350E0,9.338887215E0,1.775474429E0
5.223592449E0,-1.160519004E0,9.302995682E0,1.586441398E0
5.228488751E0,1.016949583E-2,9.415757179E0,1.531107426E0
5.233385106E0,8.195417374E-2,9.353244781E0,1.425823212E0
5.238281460E0,-5.682953820E-2,9.197710991E0,1.162612677E0
5.243177814E0,-2.294118702E-1,9.030213356E0,8.703892231E-1
5.248074116E0,-4.806582630E-1,8.898608208E0,5.904290080E-1
5.252970470E0,-7.034898400E-1,8.804988861E0,3.747758567E-1
5.257866824E0,-9.308080077E-1,8.742775917E0,2.048854381E-1
5.262763179E0,-1.148554921E0,8.692526817E0,6.131608039E-2
5.267659481E0,-1.352243900E0,8.637491226E0,-5.353940651E-2
5.272555835E0,-1.548455358E0,8.644669533E0,-1.109671518E-1
5.277452189E0,-1.718345761E0,8.659027100E0,-7.268198580E-2
5.282348491E0,-1.828714728E0,8.721240044E0,3.738785535E-2
5.287244845E0,-2.000998020E0,8.781061172E0,2.479562461E-1
5.292141199E0,-2.146960020E0,8.891429901E0,4.420739710E-1
5.297037554E0,-2.264208317E0,8.951250076E0,6.861419082E-1
5.301933856E0,-2.357827663E0,9.030213356E0,9.326026440E-1
5.306830210E0,-2.393719912E0,9.085248947E0,1.162612677E0
5.311744741E0,-2.534896374E0,9.200103760E0,1.385145187E0
5.316622918E0,-2.618645191E0,9.336494446E0,1.511964798E0
5.321537449E0,-2.714358091E0,9.477970123E0,1.528714538E0
5.326415574E0,-2.843570709E0,9.597611427E0,1.459322691E0
5.331330106E0,-2.934797049E0,9.633503914E0,1.500000715E0
5.336208283E0,-2.992224693E0,9.645467758E0,1.646261930E0
5.341122762E0,-2.857927561E0,9.485149384E0,1.952543259E0
5.346000939E0,-2.254637241E0,8.901000977E0,2.546262503E0
5.350915470E0,-2.261815548E0,8.922536850E0,2.541476727E0
5.355793595E0,-2.278565407E0,8.896215439E0,2.479263306E0
5.360708126E0,-2.046461582E0,8.637491226E0,2.534298182E0
5.365586304E0,-1.912463546E0,8.481958389E0,2.584547520E0
5.370500835E0,-2.003390789E0,8.481958389E0,2.574976206E0
5.375378960E0,-2.058425665E0,8.532207489E0,2.601297379E0
5.380275314E0,-2.245065928E0,8.642276764E0,2.637189627E0
5.385171668E0,-2.479861498E0,8.749954224E0,2.687737942E0
5.390071460E0,-2.534896374E0,8.809774399E0,2.745165825E0
5.394964324E0,-2.570788860E0,8.860322952E0,2.807379246E0
5.399860679E0,-2.850749016E0,8.975178719E0,2.752344131E0
5.404757033E0,-3.040081263E0,9.085248947E0,2.718844652E0
5.409653335E0,-3.128615618E0,9.192925453E0,2.812164783E0
5.414549689E0,-3.238685369E0,9.252745628E0,2.812164783E0
5.419446043E0,-3.413361549E0,9.300602913E0,2.735594511E0
5.424342397E0,-3.528516054E0,9.362815857E0,2.730808735E0
5.429238699E0,-3.657728434E0,9.468399048E0,2.675773859E0
5.434135054E0,-3.731905937E0,9.530612946E0,2.632404089E0
5.439031408E0,-3.755834341E0,9.638289452E0,2.678166628E0
5.443927710E0,-3.932903051E0,9.702896118E0,2.574976206E0
5.448824064E0,-4.115056515E0,9.781859398E0,2.385943174E0
5.453720418E0,-4.220340729E0,9.856036186E0,2.299801588E0
5.458616772E0,-4.392624378E0,9.889535904E0,2.115554333E0
5.463513074E0,-4.495515347E0,9.952048302E0,1.933400750E0
5.468409429E0,-4.548157692E0,9.937392235E0,1.758724689E0
5.473305783E0,-4.663312435E0,9.934999466E0,1.567298889E0
5.478202137E0,-4.507479668E0,9.664610863E0,1.488036633E0
5.483098439E0,-4.485944271E0,9.734002113E0,1.337288737E0
5.487994793E0,-4.560121536E0,9.731609344E0,9.999007583E-1
5.492891147E0,-4.622634411E0,9.707681656E0,6.981059909E-1
5.497787449E0,-4.648955345E0,9.698110580E0,5.449653864E-1
5.502683804E0,-4.711168766E0,9.655039787E0,3.675973713E-1
5.507580158E0,-4.739882469E0,9.674181938E0,2.814557552E-1
5.512476512E0,-4.723132610E0,9.671789169E0,2.479562461E-1
5.517372814E0,-4.744668007E0,9.726823807E0,2.838485837E-1
5.522269168E0,-4.859523773E0,9.781859398E0,1.881356835E-1
5.527165522E0,-4.888237476E0,9.887143135E0,1.498505175E-1
5.532061876E0,-4.775774956E0,9.952048302E0,5.521438122E-1
5.536958179E0,-4.505086899E0,9.966405869E0,1.069292665E0
5.541854533E0,-4.194019794E0,9.896714211E0,1.572084427E0
5.546750887E0,-3.901796341E0,9.755537987E0,1.931007862E0
5.551647189E0,-3.624228954E0,9.633503914E0,2.204088688E0
5.556543543E0,-3.415754318E0,9.506684303E0,2.354836702E0
5.561458074E0,-3.212364435E0,9.374779701E0,2.388336182E0
5.566336199E0,-3.073580742E0,9.238389015E0,2.321336985E0
5.571232554E0,-2.980260611E0,9.092427254E0,2.158625126E0
5.576128908E0,-2.937189817E0,8.984749794E0,1.947757602E0
5.581025262E0,-2.903690338E0,8.877073288E0,1.737189293E0
5.585921564E0,-2.930011272E0,8.795417786E0,1.607976794E0
5.590817918E0,-2.980260611E0,8.728418350E0,1.504786372E0
5.595714272E0,-3.049652576E0,8.690134048E0,1.452144265E0
5.600610626E0,-3.087937593E0,8.666205406E0,1.442572951E0
5.605506929E0,-3.147758245E0,8.632705688E0,1.447358608E0
5.610421720E0,-3.176471949E0,8.615956306E0,1.435394526E0
5.615299637E0,-3.209971666E0,8.618349075E0,1.425823212E0
5.620195939E0,-3.255435228E0,8.632705688E0,1.404287815E0
5.625092293E0,-3.255435228E0,8.675776482E0,1.404287815E0
5.629992085E0,-3.269792080E0,8.711668968E0,1.389930844E0
5.634884949E0,-3.286541939E0,8.733204842E0,1.404287815E0
5.639874897E0,-3.346362352E0,8.771489143E0,1.416251898E0
5.644869220E0,-3.425325632E0,8.821739197E0,1.454537034E0
5.649863491E0,-3.504587889E0,8.804988861E0,1.478465319E0
5.654857762E0,-3.557229996E0,8.816953659E0,1.492822170E0
5.659852033E0,-3.629014730E0,8.797810555E0,1.507179141E0
5.664846251E0,-3.657728434E0,8.819346428E0,1.528714538E0
5.669840522E0,-3.660121441E0,8.829216003E0,1.540678620E0
5.674834793E0,-3.643371582E0,8.860322952E0,1.528714538E0
5.679829064E0,-3.600300789E0,8.874680519E0,1.548156261E0
5.684826720E0,-3.550051451E0,8.877073288E0,1.526321769E0
5.689824376E0,-3.492623806E0,8.908179283E0,1.502393484E0
5.694818647E0,-3.495016575E0,8.920144081E0,1.492822170E0
5.699812866E0,-3.449553013E0,8.903393745E0,1.497607827E0
5.704807137E0,-3.437289715E0,8.889037132E0,1.521536112E0
5.709801408E0,-3.434896946E0,8.860322952E0,1.564906001E0
5.714795626E0,-3.451945782E0,8.797810555E0,1.605584025E0
5.719789897E0,-3.466302633E0,8.761918068E0,1.624726534E0
5.724784168E0,-3.521337509E0,8.699705124E0,1.646261930E0
5.729778439E0,-3.578765392E0,8.625527382E0,1.648654819E0
5.734772658E0,-3.602693558E0,8.563314438E0,1.653440475E0
5.739766929E0,-3.652942896E0,8.496315002E0,1.651047587E0
5.744761199E0,-3.707977772E0,8.467600822E0,1.610369682E0
5.749755418E0,-3.755834341E0,8.446065903E0,1.588834286E0
5.754749689E0,-3.815654755E0,8.426922798E0,1.531107426E0
5.759743960E0,-3.870689631E0,8.419744492E0,1.502393484E0
5.764738231E0,-3.923331738E0,8.443673134E0,1.452144265E0
5.769732449E0,-3.964009762E0,8.513064384E0,1.413859129E0
5.774726720E0,-4.033700943E0,8.584849358E0,1.392323732E0
5.779720991E0,-4.079164505E0,8.675776482E0,1.370788217E0
5.784715210E0,-4.124628067E0,8.778668404E0,1.334895968E0
5.789709481E0,-4.146163464E0,8.869894028E0,1.322931767E0
5.794703751E0,-4.191627026E0,8.979964256E0,1.303789258E0
5.799697970E0,-4.198805332E0,9.068498611E0,1.308574915E0
5.804692241E0,-4.213162422E0,9.171390533E0,1.313360572E0
5.809686512E0,-4.265804768E0,9.255139351E0,1.318146229E0
5.814680731E0,-4.272983074E0,9.329316139E0,1.301396370E0
5.819675001E0,-4.284946918E0,9.396614075E0,1.291825175E0
5.824669272E0,-4.301696777E0,9.446864128E0,1.284646630E0
5.829682085E0,-4.299304008E0,9.511469841E0,1.279860973E0
5.834657762E0,-4.277768612E0,9.533005714E0,1.253539920E0
5.839670314E0,-4.239483356E0,9.583254814E0,1.200897813E0
5.844646304E0,-4.170091629E0,9.568898201E0,1.155434251E0
5.849659116E0,-4.036093712E0,9.566504478E0,1.078863859E0
5.854634793E0,-3.940081596E0,9.561718941E0,9.831510186E-1
5.859629064E0,-3.822833300E0,9.561718941E0,9.326026440E-1
5.864623283E0,-3.700799227E0,9.542576790E0,8.991031051E-1
5.869617554E0,-3.650550127E0,9.573683739E0,8.608179688E-1
5.874611824E0,-3.564408541E0,9.602396965E0,8.775677085E-1
5.879606095E0,-3.542873144E0,9.669396400E0,9.230313301E-1
5.884598231E0,-3.478266716E0,9.777072906E0,9.951151013E-1
5.889529793E0,-3.461517096E0,9.894321442E0,1.076471090E0
5.894390939E0,-3.454338551E0,1.000947666E1,1.169791222E0
5.899287241E0,-3.461517096E0,1.014347458E1,1.246361494E0
5.904183595E0,-3.447160006E0,1.027507973E1,1.346860051E0
5.909079949E0,-3.447160006E0,1.038993549E1,1.416251898E0
5.913976251E0,-3.444767237E0,1.051944637E1,1.509572029E0
5.918872606E0,-3.444767237E0,1.060319519E1,1.605584025E0
5.923768960E0,-3.434896946E0,1.062233829E1,1.701296926E0
5.928665314E0,-3.444767237E0,1.061515903E1,1.785045743E0
5.933561616E0,-3.434896946E0,1.052662468E1,1.852044702E0
5.938457970E0,-3.413361549E0,1.038993549E1,1.873580098E0
5.943354324E0,-3.391826153E0,1.018893814E1,1.794616938E0
5.948250626E0,-3.394218922E0,9.968798637E0,1.660618901E0
5.953146981E0,-3.399004459E0,9.712467194E0,1.461715579E0
5.958043335E0,-3.434896946E0,9.501898766E0,1.236790180E0
5.962939637E0,-3.449553013E0,9.310173988E0,1.011864901E0
5.967835991E0,-3.425325632E0,9.161818504E0,8.081758618E-1
5.972732345E0,-3.396611691E0,9.034998894E0,6.239284873E-1
5.977628647E0,-3.334398270E0,8.984749794E0,4.707878530E-1
5.982525001E0,-3.279363394E0,8.922536850E0,3.125624657E-1
5.987421356E0,-3.212364435E0,8.898608208E0,2.144567221E-1
5.992317658E0,-3.128615618E0,8.879466057E0,2.048854381E-1
5.997214012E0,-3.052045345E0,8.896215439E0,3.101696372E-1
6.002110366E0,-2.939582586E0,8.881858826E0,5.401797295E-1
6.007006720E0,-2.860320330E0,8.865108490E0,8.249256015E-1
6.011903022E0,-2.752643347E0,8.843573570E0,1.117149115E0
6.016799376E0,-2.652144909E0,8.769096375E0,1.198505044E0
6.021695731E0,-2.587538481E0,8.659027100E0,1.028614640E0
6.026592033E0,-2.307279348E0,8.587242126E0,1.418644667E0
6.031488387E0,-2.034497499E0,8.647063255E0,1.914258122E0
6.036384741E0,-1.835893154E0,8.723632812E0,2.158625126E0
6.041299220E0,-1.703988791E0,8.812167168E0,2.134696960E0
6.046177397E0,-1.620239973E0,8.869894028E0,1.942971945E0
6.051073751E0,-1.613061547E0,8.996713638E0,1.741974831E0
6.055970054E0,-1.629811287E0,9.130712509E0,1.574477315E0
6.060884324E0,-1.672882080E0,9.269495964E0,1.435394526E0
6.065762762E0,-1.668096542E0,9.372386932E0,1.301396370E0
6.070677241E0,-1.625025630E0,9.501898766E0,1.150648594E0
6.075555418E0,-1.615454435E0,9.583254814E0,1.028614640E0
6.080469949E0,-1.593919039E0,9.712467194E0,9.254241586E-1
6.085348074E0,-1.565205097E0,9.827322960E0,9.278169870E-1
6.090262658E0,-1.538884044E0,9.858428955E0,9.206385016E-1
6.095140783E0,-1.471885085E0,9.863214493E0,9.493523836E-1
6.100037085E0,-1.443171144E0,9.829715729E0,9.086744189E-1
6.104933439E0,-1.409671664E0,9.796216011E0,8.656035662E-1
6.109829793E0,-1.383350611E0,9.762716293E0,8.632107973E-1
6.114726095E0,-1.352243900E0,9.745966911E0,8.129615188E-1
6.119622449E0,-1.301994562E0,9.750752449E0,8.584251404E-1
6.124518804E0,-1.230209947E0,9.786644936E0,9.541380405E-1
6.129415158E0,-1.186840057E0,9.841679573E0,9.565308690E-1
6.134311460E0,-1.138983607E0,9.875179291E0,9.565308690E-1
6.139207814E0,-1.093519926E0,9.899106979E0,9.206385016E-1
6.144104168E0,-1.079162955E0,9.918250084E0,9.302098155E-1
6.149000470E0,-1.036092162E0,9.920642853E0,9.831510186E-1
6.153896824E0,-9.738788009E-1,9.930213928E0,1.066899776E0
6.158793179E0,-8.949156404E-1,9.870393753E0,1.313360572E0
6.163689481E0,-7.010970116E-1,9.791430473E0,1.674975872E0
6.168585835E0,-6.412764788E-1,9.643074989E0,1.935793519E0
6.173482189E0,-4.878367186E-1,9.556933403E0,2.177767754E0
6.178378491E0,-4.639084935E-1,9.446864128E0,2.299801588E0
6.183274845E0,-4.734797776E-1,9.403793335E0,2.273480654E0
6.188171199E0,-5.452644825E-1,9.369994164E0,2.208874464E0
6.193067501E0,-5.907281041E-1,9.381958008E0,2.108375788E0
6.197963856E0,-5.883352757E-1,9.317352295E0,2.093719721E0
6.202860210E0,-5.117649436E-1,9.240781784E0,2.084148407E0
6.207756512E0,-3.849453330E-1,9.128319740E0,2.137089729E0
6.212652866E0,-5.452644825E-1,9.207282066E0,2.065006018E0
6.217549220E0,-1.038485050E0,9.475577354E0,1.840080619E0
6.222445522E0,-1.500598907E0,9.801001549E0,1.588834286E0
6.227341876E0,-1.807179332E0,1.003818989E1,1.440180182E0
6.232238231E0,-1.874178290E0,1.018893814E1,1.368395448E0
6.237134533E0,-1.831107497E0,1.023200893E1,1.330110312E0
6.242030887E0,-1.656132340E0,1.024397278E1,1.370788217E0
6.246927241E0,-1.605883121E0,1.027747250E1,1.344467282E0
6.251842033E0,-1.960319996E0,1.035882854E1,9.804590940E-1
6.256719897E0,-1.804786444E0,1.022243786E1,9.206385016E-1
6.261616251E0,-1.553241014E0,1.003818989E1,1.007079244E0
6.266512554E0,-1.297209024E0,9.863214493E0,1.294217944E0
6.271427085E0,-1.124626637E0,9.695717812E0,1.639083505E0
6.276305262E0,-9.523434043E-1,9.568898201E0,1.959721804E0
6.281201564E0,-7.992027402E-1,9.413364410E0,2.266302109E0
6.286097918E0,-7.369893789E-1,9.291030884E0,2.565404892E0
6.290994272E0,-7.130611539E-1,9.188139915E0,2.757129908E0
6.295890574E0,-7.010970116E-1,9.058927536E0,2.833700180E0
6.300786929E0,-7.298108935E-1,8.989535332E0,2.819343328E0
6.305683283E0,-7.728816867E-1,8.965607643E0,2.704487801E0
6.310579585E0,-8.494520187E-1,9.001500130E0,2.541476727E0
6.315475939E0,-9.595218897E-1,9.061320305E0,2.381157637E0
6.320390470E0,-1.060020447E0,9.159425735E0,2.220838547E0
6.325268595E0,-1.165304661E0,9.247960091E0,2.110768557E0
6.330168387E0,-1.258923769E0,9.353244781E0,2.000399828E0
6.335061304E0,-1.378564954E0,9.369994164E0,1.962114573E0
6.339960679E0,-1.474277854E0,9.427721024E0,1.938186288E0
6.344853960E0,-1.517348647E0,9.477970123E0,1.916650891E0
6.349750314E0,-1.526919961E0,9.497113228E0,1.880758643E0
6.354646616E0,-1.514955878E0,9.549755096E0,1.868794441E0
6.359542970E0,-1.495813251E0,9.571290970E0,1.885544300E0
6.364439324E0,-1.462313771E0,9.631111145E0,1.866401672E0
6.369335626E0,-1.435992718E0,9.700503349E0,1.849651933E0
6.374231981E0,-1.450349569E0,9.748359680E0,1.806581140E0
6.379128335E0,-1.483849168E0,9.793823242E0,1.758724689E0
6.384024637E0,-1.493420482E0,9.846465111E0,1.710868239E0
6.388979533E0,-1.543669701E0,9.875179291E0,1.658226132E0
6.393817345E0,-1.569990754E0,9.906285286E0,1.617548108E0
6.398713647E0,-1.608275890E0,9.937392235E0,1.576870084E0
6.403610001E0,-1.663310885E0,9.987940788E0,1.535893083E0
6.408506356E0,-1.708774447E0,1.005254745E1,1.442572951E0
6.413402658E0,-1.768894196E0,1.011715317E1,1.385145187E0
6.418299012E0,-1.833500385E0,1.016022396E1,1.332503080E0
6.423195366E0,-1.893320918E0,1.020090199E1,1.289432287E0
6.428091668E0,-2.060818434E0,1.013390255E1,1.291825175E0
6.432988022E0,-2.288136721E0,9.975976944E0,1.277468204E0
6.437884324E0,-2.436790705E0,9.798608780E0,1.222433209E0
6.442780679E0,-2.508575439E0,9.597611427E0,1.205683470E0
6.447677033E0,-2.082353830E0,9.302995682E0,1.454537034E0
6.452573335E0,-1.641775489E0,9.006285667E0,1.741974831E0
6.457469689E0,-1.385743380E0,8.845966339E0,1.962114573E0
6.462366043E0,-1.378564954E0,8.845966339E0,2.120339870E0
6.467262345E0,-1.462313771E0,8.915358543E0,2.292623281E0
6.472158699E0,-1.608275890E0,9.030213356E0,2.429013968E0
6.477055054E0,-1.730309844E0,9.109176636E0,2.448156595E0
6.481951356E0,-1.735095501E0,9.147461891E0,2.417049885E0
6.486847710E0,-1.665703654E0,9.133105278E0,2.338086843E0
6.491744064E0,-1.524527073E0,9.080462456E0,2.213660002E0
6.496640366E0,-1.409671664E0,9.032606125E0,2.062613010E0
6.501536720E0,-1.385743380E0,9.118747711E0,1.895115495E0
6.506433074E0,-1.596311808E0,9.341280937E0,1.631905079E0
6.511329376E0,-1.893320918E0,9.580862045E0,1.399502158E0
6.516225731E0,-2.058425665E0,9.719645500E0,1.141077280E0
6.521122085E0,-1.965105653E0,9.693324089E0,1.021436214E0
6.526018387E0,-1.819143414E0,9.669396400E0,1.069292665E0
6.530914741E0,-1.821536183E0,9.626325607E0,1.059721351E0
6.535811095E0,-1.852642894E0,9.623932838E0,1.114756227E0
6.540725626E0,-1.967498422E0,9.688538551E0,1.193719387E0
6.545603751E0,-2.048854351E0,9.745966911E0,1.272682548E0
6.550518231E0,-2.015354872E0,9.769894600E0,1.385145187E0
6.555396408E0,-2.020140409E0,9.779465675E0,1.516750455E0
6.560292762E0,-2.067996979E0,9.827322960E0,1.648654819E0
6.565189064E0,-2.130210400E0,9.815358162E0,1.737189293E0
6.570088856E0,-2.113460541E0,9.767501831E0,1.765903115E0
6.574981772E0,-2.099103689E0,9.714859962E0,1.701296926E0
6.579878074E0,-2.075175524E0,9.695717812E0,1.629512191E0
6.584774429E0,-2.048854351E0,9.631111145E0,1.598405480E0
6.589688960E0,-1.941177368E0,9.561718941E0,1.497607827E0
6.594567085E0,-1.878963947E0,9.504291534E0,1.418644667E0
6.599463439E0,-1.922034740E0,9.475577354E0,1.315753341E0
6.604359793E0,-1.936391711E0,9.399007797E0,1.265504122E0
6.609256095E0,-1.898106575E0,9.329316139E0,1.200897813E0
6.614152449E0,-1.929213285E0,9.293423653E0,1.217647672E0
6.619048751E0,-1.890928149E0,9.310173988E0,1.248754263E0
6.623945106E0,-1.850250125E0,9.403793335E0,1.361217022E0
6.628841460E0,-1.855035782E0,9.470791817E0,1.509572029E0
6.633737762E0,-1.826321840E0,9.489934921E0,1.639083505E0
6.638634116E0,-1.778465390E0,9.561718941E0,1.677368641E0
6.643530470E0,-1.742274046E0,9.578469276E0,1.674975872E0
6.648426772E0,-1.737488389E0,9.592825890E0,1.670190215E0
6.653323126E0,-1.764108539E0,9.623932838E0,1.648654819E0
6.658219481E0,-1.807179332E0,9.690931320E0,1.586441398E0
6.663115783E0,-1.788036704E0,9.750752449E0,1.521536112E0
6.668012137E0,-1.783251047E0,9.803394318E0,1.514357686E0
6.672908491E0,-1.768894196E0,9.815358162E0,1.526321769E0
6.677804793E0,-1.759322882E0,9.784252167E0,1.612762451E0
6.682701147E0,-1.819143414E0,9.719645500E0,1.698904037E0
6.687597501E0,-1.866999865E0,9.659825325E0,1.820937991E0
6.692493804E0,-1.883749604E0,9.616754532E0,2.012363911E0
6.697390158E0,-1.931606054E0,9.556933403E0,2.146661043E0
6.702286460E0,-1.960319996E0,9.480362892E0,2.259123564E0
6.707182814E0,-2.003390789E0,9.425328255E0,2.278266191E0
6.712079168E0,-1.977069736E0,9.379565239E0,2.180160522E0
6.716975470E0,-1.929213285E0,9.341280937E0,2.057827473E0
6.721871824E0,-1.898106575E0,9.291030884E0,1.928615093E0
6.726768179E0,-1.888535261E0,9.250352859E0,1.854437590E0
6.731664481E0,-1.876571178E0,9.231210709E0,1.883151412E0
6.736560835E0,-1.850250125E0,9.212067604E0,1.904686809E0
6.741475366E0,-1.788036704E0,9.192925453E0,1.952543259E0
6.746353491E0,-1.783251047E0,9.185747147E0,1.921436548E0
6.751267970E0,-1.776072621E0,9.183354378E0,1.904686809E0
6.756146147E0,-1.788036704E0,9.257532120E0,1.902294040E0
6.761042501E0,-1.838286042E0,9.374779701E0,1.950150490E0
6.765938856E0,-1.907677889E0,9.489934921E0,2.009970903E0
6.770853647E0,-1.922034740E0,9.597611427E0,2.043470621E0
6.775731512E0,-1.924427629E0,9.652647018E0,2.045863390E0
6.780627866E0,-1.888535261E0,9.645467758E0,2.041077614E0
6.785524168E0,-1.816750646E0,9.611968994E0,2.057827473E0
6.790438699E0,-1.773679733E0,9.585647583E0,2.151446581E0
6.795316876E0,-1.811964989E0,9.635896683E0,2.268694878E0
6.800213179E0,-1.888535261E0,9.736394882E0,2.338086843E0
6.805109533E0,-1.924427629E0,9.820143700E0,2.364407778E0
6.810009168E0,-1.881356835E0,9.856036186E0,2.347658157E0
6.814902189E0,-1.845464468E0,9.815358162E0,2.239981174E0
6.819798543E0,-1.802393675E0,9.772287369E0,2.079362869E0
6.824694845E0,-1.771286964E0,9.690931320E0,1.976471543E0
6.829591199E0,-1.739881158E0,9.571290970E0,1.887937069E0
6.834487554E0,-1.771286964E0,9.475577354E0,1.811366796E0
6.839481460E0,-1.869392633E0,9.499505997E0,1.799402595E0
6.844280158E0,-1.953141451E0,9.525827408E0,1.871187329E0
6.849176512E0,-1.986641049E0,9.556933403E0,1.957328916E0
6.854072866E0,-2.077568293E0,9.611968994E0,1.983649969E0
6.858969220E0,-2.115853310E0,9.645467758E0,1.962114573E0
6.863865522E0,-2.099103689E0,9.700503349E0,1.976471543E0
6.868761876E0,-2.075175524E0,9.710074425E0,2.072184324E0
6.873658231E0,-1.998605132E0,9.762716293E0,2.165803671E0
6.878554533E0,-1.900499344E0,9.774680138E0,2.251945257E0
6.883450887E0,-1.831107497E0,9.765109062E0,2.352443695E0
6.888347189E0,-1.811964989E0,9.786644936E0,2.438585281E0
6.893243543E0,-1.783251047E0,9.820143700E0,2.517548561E0
6.898139897E0,-1.672882080E0,9.824930191E0,2.577368975E0
6.903036199E0,-1.603490233E0,9.822537422E0,2.570190668E0
6.907932554E0,-1.524527073E0,9.834501266E0,2.496013165E0
6.912828908E0,-1.435992718E0,9.882357597E0,2.335694075E0
6.917725210E0,-1.316351533E0,9.937392235E0,2.139482498E0
6.922621564E0,-1.194018483E0,9.937392235E0,1.914258122E0
6.927517866E0,-1.076770186E0,9.918250084E0,1.792224169E0
6.932414220E0,-1.016949654E0,9.908679008E0,1.720439434E0
6.937310574E0,-1.055234790E0,9.932606697E0,1.655833244E0
6.942206876E0,-1.182054400E0,9.952048302E0,1.610369682E0
6.947103231E0,-1.268495083E0,9.942177773E0,1.572084427E0
6.951999585E0,-1.299601793E0,9.899106979E0,1.581655741E0
6.956895887E0,-1.266102314E0,9.793823242E0,1.567298889E0
6.961810418E0,-1.213460207E0,9.662218094E0,1.495215058E0
6.966688543E0,-1.311565876E0,9.583254814E0,1.361217022E0
6.971584897E0,-1.464706540E0,9.525827408E0,1.227218866E0
6.976481251E0,-1.534098387E0,9.451649666E0,1.176969647E0
6.981377554E0,-1.519741535E0,9.350852013E0,1.153041363E0
6.986273908E0,-1.512562990E0,9.283852577E0,1.148255825E0
6.991170262E0,-1.562812328E0,9.221639633E0,1.153041363E0
6.996066564E0,-1.569990754E0,9.212067604E0,1.124327540E0
7.000962918E0,-1.572383523E0,9.240781784E0,1.112363458E0
7.005859220E0,-1.536491275E0,9.252745628E0,1.014257669E0
7.010773751E0,-1.517348647E0,9.302995682E0,9.182456732E-1
7.015651929E0,-1.550848126E0,9.341280937E0,8.488538265E-1
7.020566460E0,-1.632204175E0,9.403793335E0,8.057830334E-1
7.025444585E0,-1.747059584E0,9.468399048E0,7.722834945E-1
7.030340887E0,-1.855035782E0,9.542576790E0,7.196413875E-1
7.035237241E0,-1.962712765E0,9.633503914E0,7.363911867E-1
7.040137866E0,-2.060818434E0,9.710074425E0,7.986045480E-1
7.045029897E0,-2.125424623E0,9.738788605E0,8.249256015E-1
7.049926251E0,-2.216351986E0,9.760323524E0,8.632107973E-1
7.054822606E0,-2.295315027E0,9.801001549E0,8.392825127E-1
7.059718908E0,-2.360220432E0,9.793823242E0,7.962117195E-1
7.064615262E0,-2.441576481E0,9.793823242E0,7.292127013E-1
7.069511564E0,-2.434397936E0,9.808179855E0,6.622136831E-1
7.074407918E0,-2.501396894E0,9.781859398E0,5.593222976E-1
7.079304272E0,-2.530110836E0,9.762716293E0,4.468596280E-1
7.084200574E0,-2.513360977E0,9.647860527E0,3.723830283E-1
7.089096929E0,-2.467897415E0,9.592825890E0,3.029911816E-1
7.093993283E0,-2.525325298E0,9.566504478E0,1.283151209E-1
7.098889585E0,-2.475075960E0,9.523433685E0,1.402792335E-1
7.103785939E0,-2.427219391E0,9.504291534E0,3.077768087E-1
7.108682241E0,-2.379363060E0,9.461220741E0,5.712863803E-1
7.113578595E0,-2.259422779E0,9.355637550E0,7.866404653E-1
7.118474949E0,-2.182852507E0,9.291030884E0,8.847461939E-1
7.123371251E0,-2.180459738E0,9.250352859E0,8.895317912E-1
7.128267606E0,-2.237887383E0,9.202496529E0,8.775677085E-1
7.133163908E0,-2.259422779E0,9.190532684E0,8.608179688E-1
7.138060262E0,-2.233101845E0,9.149854660E0,8.632107973E-1
7.142956616E0,-2.252244234E0,9.087641716E0,8.967102766E-1
7.147852918E0,-2.278565407E0,9.015856743E0,9.397810698E-1
7.152749272E0,-2.316850424E0,8.948857307E0,9.684949517E-1
7.157645574E0,-2.376970291E0,8.944071770E0,9.708877802E-1
7.162541929E0,-2.465504646E0,8.929715157E0,9.999007583E-1
7.167438283E0,-2.518146753E0,8.934500694E0,1.031007409E0
7.172334585E0,-2.587538481E0,8.920144081E0,1.090828061E0
7.177230939E0,-2.630609512E0,8.915358543E0,1.129113197E0
7.182127293E0,-2.649751902E0,8.948857307E0,1.208076358E0
7.187023595E0,-2.647359133E0,8.960822105E0,1.279860973E0
7.191938126E0,-2.676073074E0,9.037391663E0,1.366002679E0
7.196816251E0,-2.778964281E0,9.142676353E0,1.452144265E0
7.201712606E0,-2.867498875E0,9.240781784E0,1.548156261E0
7.206608960E0,-2.930011272E0,9.305388451E0,1.627119422E0
7.211523699E0,-2.970689297E0,9.355637550E0,1.677368641E0
7.216401616E0,-2.987439156E0,9.415757179E0,1.682154298E0
7.221297918E0,-3.006581545E0,9.456435204E0,1.677368641E0
7.226194272E0,-2.949153900E0,9.533005714E0,1.646261930E0
7.231090626E0,-2.915654421E0,9.583254814E0,1.593619823E0
7.235986929E0,-2.894119024E0,9.633503914E0,1.564906001E0
7.240883283E0,-2.817249537E0,9.690931320E0,1.543370605E0
7.245779585E0,-2.759821892E0,9.741181374E0,1.483250976E0
7.250694116E0,-2.695215702E0,9.784252167E0,1.440180182E0
7.255572293E0,-2.671287298E0,9.841679573E0,1.349252820E0
7.260486772E0,-2.575574398E0,9.896714211E0,1.248754263E0
7.265364949E0,-2.453540564E0,9.927821159E0,1.174576759E0
7.270261304E0,-2.326720953E0,9.939785004E0,1.100399256E0
7.275157606E0,-2.247458696E0,9.992726326E0,1.047757268E0
7.280053960E0,-2.175673962E0,1.000708294E1,9.684949517E-1
7.284950262E0,-2.108675003E0,1.005494022E1,8.679963946E-1
7.289864793E0,-2.063211441E0,1.008843899E1,8.081758618E-1
7.294742970E0,-2.051247120E0,1.011476040E1,7.651050687E-1
7.299639272E0,-2.058425665E0,1.013390255E1,7.674978375E-1
7.304535626E0,-2.053640127E0,1.015783119E1,8.273184299E-1
7.309431929E0,-2.044068813E0,1.016261673E1,9.062815905E-1
7.314328283E0,-2.075175524E0,1.015783119E1,1.004686356E0
7.319224637E0,-2.082353830E0,1.014347458E1,1.090828061E0
7.324120939E0,-2.089532375E0,1.013868904E1,1.184148073E0
7.329017293E0,-2.087139606E0,1.016740227E1,1.291825175E0
7.333913595E0,-2.142174482E0,1.024636555E1,1.401894927E0
7.338809949E0,-2.230708838E0,1.025115108E1,1.476072431E0
7.343706304E0,-2.312064886E0,1.027986526E1,1.584048629E0
7.348602606E0,-2.388934374E0,1.025593662E1,1.672582984E0
7.353498960E0,-2.412862539E0,1.016261673E1,1.768295884E0
7.358395262E0,-2.455933332E0,1.003101158E1,1.840080619E0
7.363291616E0,-2.525325298E0,9.887143135E0,1.852044702E0
7.368187970E0,-2.604288340E0,9.741181374E0,1.818545222E0
7.373084272E0,-2.704786777E0,9.571290970E0,1.739582062E0
7.377980626E0,-2.817249537E0,9.420542717E0,1.586441398E0
7.382876929E0,-2.894119024E0,9.281459808E0,1.471286774E0
7.387773283E0,-2.939582586E0,9.133105278E0,1.397109270E0
7.392669637E0,-2.973082066E0,8.968000412E0,1.368395448E0
7.397565939E0,-3.011367321E0,8.845966339E0,1.375573874E0
7.402462293E0,-3.056830883E0,8.759525299E0,1.411466241E0
7.407358595E0,-3.071187973E0,8.687741280E0,1.492822170E0
7.412254949E0,-3.066402197E0,8.644669533E0,1.538285851E0
7.417151304E0,-3.061616659E0,8.668598175E0,1.543370605E0
7.422047606E0,-3.035295486E0,8.670990944E0,1.579262972E0
7.426943960E0,-2.985046148E0,8.740383148E0,1.600798368E0
7.431840262E0,-2.944368362E0,8.766703606E0,1.569691658E0
7.436736616E0,-2.884547710E0,8.809774399E0,1.540678620E0
7.441632970E0,-2.822035313E0,8.884251595E0,1.523928881E0
7.446529272E0,-2.757428885E0,8.972785950E0,1.490429401E0
7.451425626E0,-2.750250578E0,9.063713074E0,1.519143224E0
7.456321929E0,-2.721536636E0,9.192925453E0,1.528714538E0
7.461218283E0,-2.704786777E0,9.293423653E0,1.521536112E0
7.466114637E0,-2.692822695E0,9.379565239E0,1.511964798E0
7.471010939E0,-2.685644388E0,9.461220741E0,1.492822170E0
7.475907293E0,-2.700001240E0,9.573683739E0,1.495215058E0
7.480803595E0,-2.721536636E0,9.645467758E0,1.509572029E0
7.485699949E0,-2.759821892E0,9.724431038E0,1.581655741E0
7.490596304E0,-2.788535595E0,9.750752449E0,1.634297848E0
7.495492606E0,-2.798106909E0,9.729216576E0,1.689332843E0
7.500388960E0,-2.807678223E0,9.686145782E0,1.710868239E0
7.505285262E0,-2.829213619E0,9.640682220E0,1.730010748E0
7.510181616E0,-2.838784933E0,9.590433121E0,1.741974831E0
7.515077918E0,-2.848356247E0,9.525827408E0,1.753939033E0
7.519974272E0,-2.843570709E0,9.463613510E0,1.713261008E0
7.524870626E0,-2.836392164E0,9.401400566E0,1.641476393E0
7.529766929E0,-2.826820850E0,9.348459244E0,1.579262972E0
7.534663283E0,-2.824428082E0,9.336494446E0,1.586441398E0
7.539657137E0,-2.841177702E0,9.324530602E0,1.641476393E0
7.544455887E0,-2.872284412E0,9.322137833E0,1.679761529E0
7.549352293E0,-2.869891644E0,9.305388451E0,1.732403636E0
7.554248595E0,-2.906083107E0,9.264710426E0,1.737189293E0
7.559144949E0,-2.949153900E0,9.252745628E0,1.715653777E0
7.564041251E0,-2.977867842E0,9.231210709E0,1.694118381E0
7.568937606E0,-2.987439156E0,9.168996811E0,1.691725612E0
7.573833960E0,-2.999403238E0,9.109176636E0,1.658226132E0
7.578730262E0,-3.064009428E0,9.061320305E0,1.660618901E0
7.583626616E0,-3.140579700E0,9.044570923E0,1.753939033E0
7.588522918E0,-3.238685369E0,9.025427818E0,1.921436548E0
7.593419272E0,-3.253042459E0,8.991928101E0,2.024327993E0
7.598315574E0,-3.174079180E0,8.927322388E0,2.055434704E0
7.603211929E0,-3.128615618E0,8.905786514E0,2.043470621E0
7.608108283E0,-3.095116138E0,8.869894028E0,2.007578135E0
7.613004585E0,-3.090330362E0,8.872286797E0,1.954936147E0
7.617900939E0,-3.032902718E0,8.901000977E0,1.916650891E0
7.622797241E0,-2.999403238E0,8.929715157E0,1.866401672E0
7.627693595E0,-2.941975355E0,8.982357025E0,1.806581140E0
7.632589949E0,-2.867498875E0,9.054141998E0,1.787438512E0
7.637486251E0,-2.805285454E0,9.085248947E0,1.725225091E0
7.642382606E0,-2.793321371E0,9.149854660E0,1.672582984E0
7.647278908E0,-2.778964281E0,9.209674835E0,1.674975872E0
7.652175262E0,-2.764607430E0,9.259924889E0,1.682154298E0
7.657071616E0,-2.778964281E0,9.312566757E0,1.691725612E0
7.661967918E0,-2.776571512E0,9.341280937E0,1.732403636E0
7.666864272E0,-2.802892685E0,9.369994164E0,1.751546144E0
7.671760574E0,-2.805285454E0,9.377172470E0,1.718046665E0
7.676656929E0,-2.812463999E0,9.401400566E0,1.751546144E0
7.681553231E0,-2.838784933E0,9.410971642E0,1.765903115E0
7.686449585E0,-2.908475876E0,9.415757179E0,1.744367719E0
7.691345939E0,-2.927618504E0,9.430113792E0,1.792224169E0
7.696242241E0,-2.930011272E0,9.401400566E0,1.847259045E0
7.701138595E0,-2.961117983E0,9.365208626E0,1.849651933E0
7.706034897E0,-2.977867842E0,9.307781219E0,1.897508383E0
7.710931251E0,-3.054438114E0,9.302995682E0,1.914258122E0
7.715827606E0,-3.097508907E0,9.264710426E0,1.950150490E0
7.720742085E0,-3.142972469E0,9.228817940E0,1.981257200E0
7.725620262E0,-3.188436270E0,9.183354378E0,2.057827473E0
7.730520210E0,-3.219542980E0,9.176176071E0,2.141875267E0
7.735412918E0,-3.224328518E0,9.185747147E0,2.220838547E0
7.740309220E0,-3.198007345E0,9.190532684E0,2.259123564E0
7.745205574E0,-3.221935749E0,9.207282066E0,2.323729992E0
7.750105418E0,-3.248256683E0,9.233603477E0,2.366800785E0
7.754998231E0,-3.272184849E0,9.269495964E0,2.347658157E0
7.759894585E0,-3.329612732E0,9.329316139E0,2.287837505E0
7.764790887E0,-3.348755360E0,9.367601395E0,2.247159481E0
7.769687241E0,-3.372683525E0,9.401400566E0,2.175374985E0
7.774583543E0,-3.379862070E0,9.389435768E0,2.108375788E0
7.779479897E0,-3.370290756E0,9.343673706E0,2.062613010E0
7.784376251E0,-3.346362352E0,9.310173988E0,1.998006940E0
7.789370106E0,-3.332005501E0,9.262317657E0,1.969292998E0
7.794168856E0,-3.332005501E0,9.224032402E0,1.947757602E0
7.799065210E0,-3.315255880E0,9.183354378E0,1.916650891E0
7.803961564E0,-3.293720484E0,9.154640198E0,1.887937069E0
7.808857918E0,-3.300898790E0,9.147461891E0,1.859223247E0
7.813754220E0,-3.298506021E0,9.137890816E0,1.816152334E0
7.818650574E0,-3.257827997E0,9.135498047E0,1.820937991E0
7.823546876E0,-3.233899832E0,9.142676353E0,1.823330879E0
7.828443231E0,-3.224328518E0,9.135498047E0,1.823330879E0
7.833339533E0,-3.224328518E0,9.140283585E0,1.825723648E0
7.838235887E0,-3.243471146E0,9.104391098E0,1.792224169E0
7.843132241E0,-3.296113253E0,9.130712509E0,1.780260086E0
7.848028543E0,-3.324826956E0,9.094820023E0,1.797009826E0
7.852924897E0,-3.353540897E0,9.087641716E0,1.837687731E0
7.857821199E0,-3.379862070E0,9.070891380E0,1.887937069E0
7.862717554E0,-3.442374468E0,9.039784431E0,1.962114573E0
7.867613856E0,-3.483052492E0,9.034998894E0,2.012363911E0
7.872510210E0,-3.504587889E0,9.013463974E0,2.048256159E0
7.877406564E0,-3.506980658E0,8.977571487E0,2.088934183E0
7.882302866E0,-3.490231037E0,8.972785950E0,2.110768557E0
7.887199220E0,-3.478266716E0,8.951250076E0,2.194517374E0
7.892113751E0,-3.483052492E0,8.927322388E0,2.187339067E0
7.896991876E0,-3.437289715E0,8.948857307E0,2.175374985E0
7.901888179E0,-3.415754318E0,8.941679001E0,2.149053812E0
7.906784533E0,-3.379862070E0,8.924929619E0,2.146661043E0
7.911680887E0,-3.329612732E0,8.932107925E0,2.189731836E0
7.916577189E0,-3.310470104E0,8.936893463E0,2.180160522E0
7.921491720E0,-3.288934708E0,8.941679001E0,2.172981977E0
7.926369845E0,-3.303291559E0,8.987142563E0,2.192124605E0
7.931284376E0,-3.272184849E0,9.018249512E0,2.165803671E0
7.936162501E0,-3.212364435E0,9.042177200E0,2.158625126E0
7.941058856E0,-3.128615618E0,9.087641716E0,2.151446581E0
7.945955158E0,-3.068794966E0,9.106783867E0,2.146661043E0
7.950869689E0,-2.999403238E0,9.130712509E0,2.139482498E0
7.955747866E0,-2.961117983E0,9.168996811E0,2.137089729E0
7.960644168E0,-2.884547710E0,9.204889297E0,2.137089729E0
7.965540522E0,-2.829213619E0,9.259924889E0,2.115554333E0
7.970436824E0,-2.798106909E0,9.283852577E0,2.084148407E0
7.975333179E0,-2.788535595E0,9.341280937E0,2.055434704E0
7.980229481E0,-2.778964281E0,9.389435768E0,2.045863390E0
7.985125835E0,-2.752643347E0,9.413364410E0,2.012363911E0
7.990022189E0,-2.716751099E0,9.425328255E0,1.990828395E0
7.994918491E0,-2.683251381E0,9.418149948E0,1.950150490E0
7.999814845E0,-2.676073074E0,9.396614075E0,1.909472466E0
8.004711147E0,-2.692822695E0,9.379565239E0,1.899901152E0
8.009607501E0,-2.711965322E0,9.350852013E0,1.907079697E0
8.014503804E0,-2.755036116E0,9.343673706E0,1.892722726E0
8.019400158E0,-2.769393206E0,9.305388451E0,1.911865234E0
8.024296512E0,-2.771785975E0,9.267103195E0,1.878365755E0
8.029192814E0,-2.762214661E0,9.216854095E0,1.868794441E0
8.034089168E0,-2.704786777E0,9.173783302E0,1.907079697E0
8.038985470E0,-2.671287298E0,9.171390533E0,1.923829436E0
8.043881824E0,-2.661715984E0,9.197710991E0,1.931007862E0
8.048778126E0,-2.668894529E0,9.228817940E0,1.938186288E0
8.053674481E0,-2.635395050E0,9.252745628E0,1.957328916E0
8.058570835E0,-2.585145712E0,9.267103195E0,1.962114573E0
8.063467137E0,-2.513360977E0,9.295816422E0,1.976471543E0
8.068363491E0,-2.482254505E0,9.334101677E0,1.974078655E0
8.073259793E0,-2.491825581E0,9.389435768E0,1.964507341E0
8.078156147E0,-2.534896374E0,9.451649666E0,1.931007862E0
8.083052449E0,-2.551646233E0,9.501898766E0,1.897508383E0
8.087948804E0,-2.530110836E0,9.525827408E0,1.861616015E0
8.092845106E0,-2.487040043E0,9.518648148E0,1.832902193E0
8.097741460E0,-2.467897415E0,9.528220177E0,1.825723648E0
8.102637814E0,-2.446362019E0,9.477970123E0,1.782652855E0
8.107534116E0,-2.436790705E0,9.456435204E0,1.739582062E0
8.112430470E0,-2.443969250E0,9.439684868E0,1.684547186E0
8.117326772E0,-2.451147795E0,9.430113792E0,1.658226132E0
8.122223126E0,-2.463111877E0,9.386744499E0,1.629512191E0
8.127119429E0,-2.443969250E0,9.312566757E0,1.588834286E0
8.132015783E0,-2.453540564E0,9.293423653E0,1.562513232E0
8.136912085E0,-2.510968208E0,9.326923370E0,1.533500195E0
8.141808439E0,-2.582752943E0,9.350852013E0,1.548156261E0
8.146704793E0,-2.666501760E0,9.384351730E0,1.550549030E0
8.151601095E0,-2.726322412E0,9.399007797E0,1.572084427E0
8.156497449E0,-2.774178743E0,9.396614075E0,1.600798368E0
8.161412189E0,-2.793321371E0,9.386744499E0,1.672582984E0
8.166290106E0,-2.838784933E0,9.346066475E0,1.744367719E0
8.171204585E0,-2.836392164E0,9.362815857E0,1.849651933E0
8.176082762E0,-2.833999395E0,9.324530602E0,1.981257200E0
8.180979064E0,-2.814856768E0,9.279067039E0,2.081755638E0
8.185875418E0,-2.752643347E0,9.238389015E0,2.120339870E0
8.190789949E0,-2.659323215E0,9.233603477E0,2.088934183E0
8.195668074E0,-2.630609512E0,9.274281502E0,1.986042738E0
8.200564429E0,-2.635395050E0,9.343673706E0,1.885544300E0
8.205460731E0,-2.618645191E0,9.422935486E0,1.837687731E0
8.210357085E0,-2.597109795E0,9.480362892E0,1.820937991E0
8.215253387E0,-2.594717026E0,9.528220177E0,1.823330879E0
8.220149741E0,-2.561217546E0,9.564111710E0,1.806581140E0
8.225046043E0,-2.554039001E0,9.576076508E0,1.799402595E0
8.229942397E0,-2.501396894E0,9.568898201E0,1.746760488E0
8.234838751E0,-2.475075960E0,9.544969559E0,1.674975872E0
8.239738335E0,-2.436790705E0,9.497113228E0,1.598405480E0
8.244631408E0,-2.398505688E0,9.468399048E0,1.502393484E0
8.249527710E0,-2.388934374E0,9.442078590E0,1.442572951E0
8.254424064E0,-2.333899498E0,9.381958008E0,1.392323732E0
8.259320366E0,-2.312064886E0,9.343673706E0,1.368395448E0
8.264216720E0,-2.297708035E0,9.341280937E0,1.370788217E0
8.269113074E0,-2.314457655E0,9.326923370E0,1.370788217E0
8.274009376E0,-2.333899498E0,9.305388451E0,1.394716501E0
8.278905679E0,-2.362613201E0,9.271888733E0,1.399502158E0
8.283802033E0,-2.316850424E0,9.255139351E0,1.440180182E0
8.288795939E0,-2.314457655E0,9.204889297E0,1.495215058E0
8.293594637E0,-2.302493572E0,9.204889297E0,1.584048629E0
8.298491043E0,-2.365005970E0,9.197710991E0,1.663011789E0
8.303387345E0,-2.408077002E0,9.192925453E0,1.727617979E0
8.308283699E0,-2.439183474E0,9.200103760E0,1.753939033E0
8.313180001E0,-2.448754787E0,9.176176071E0,1.727617979E0
8.318076356E0,-2.463111877E0,9.154640198E0,1.715653777E0
8.322972710E0,-2.463111877E0,9.157032967E0,1.694118381E0
8.327869012E0,-2.477468729E0,9.168996811E0,1.689332843E0
8.332765314E0,-2.460718870E0,9.176176071E0,1.679761529E0
8.337661668E0,-2.455933332E0,9.192925453E0,1.639083505E0
8.342558022E0,-2.424826622E0,9.235996246E0,1.586441398E0
8.347454324E0,-2.410469770E0,9.250352859E0,1.562513232E0
8.352350679E0,-2.376970291E0,9.314959526E0,1.523928881E0
8.357246981E0,-2.343470573E0,9.360423088E0,1.490429401E0
8.362143335E0,-2.276172638E0,9.381958008E0,1.485643744E0
8.367039637E0,-2.190030813E0,9.408578873E0,1.464108348E0
8.371954168E0,-2.130210400E0,9.439684868E0,1.449751377E0
8.376832293E0,-2.103889227E0,9.501898766E0,1.452144265E0
8.381746824E0,-2.101496458E0,9.564111710E0,1.440180182E0
8.386625001E0,-2.096710920E0,9.614361763E0,1.452144265E0
8.391521304E0,-2.058425665E0,9.674181938E0,1.476072431E0
8.396417658E0,-2.029711723E0,9.700503349E0,1.497607827E0
8.401332189E0,-1.984248161E0,9.714859962E0,1.545763373E0
8.406210314E0,-1.943570137E0,9.755537987E0,1.622333765E0
8.411124793E0,-1.919641972E0,9.791430473E0,1.674975872E0
8.416002970E0,-1.965105653E0,9.786644936E0,1.698904037E0
8.420917501E0,-1.969891191E0,9.769894600E0,1.720439434E0
8.425795626E0,-1.996212244E0,9.750752449E0,1.737189293E0
8.430710106E0,-2.005783558E0,9.736394882E0,1.746760488E0
8.435588283E0,-2.053640127E0,9.738788605E0,1.703689694E0
8.440502762E0,-2.101496458E0,9.710074425E0,1.677368641E0
8.445380939E0,-2.132603168E0,9.681360245E0,1.643869162E0
8.450277293E0,-2.156531334E0,9.647860527E0,1.615155339E0
8.455173595E0,-2.190030813E0,9.611968994E0,1.607976794E0
8.460069949E0,-2.218744755E0,9.552147865E0,1.593619823E0
8.464966251E0,-2.235494614E0,9.506684303E0,1.607976794E0
8.469862606E0,-2.283350945E0,9.442078590E0,1.584048629E0
8.474758908E0,-2.273779631E0,9.420542717E0,1.591227055E0
8.479655262E0,-2.288136721E0,9.410971642E0,1.617548108E0
8.484551564E0,-2.302493572E0,9.444471359E0,1.607976794E0
8.489447918E0,-2.302493572E0,9.533005714E0,1.610369682E0
8.494344272E0,-2.259422779E0,9.588040352E0,1.634297848E0
8.499240574E0,-2.216351986E0,9.652647018E0,1.627119422E0
8.504136929E0,-2.151745796E0,9.729216576E0,1.619940877E0
8.509033231E0,-2.130210400E0,9.774680138E0,1.619940877E0
8.513929585E0,-2.127817631E0,9.841679573E0,1.627119422E0
8.518825887E0,-2.113460541E0,9.832108498E0,1.641476393E0
8.523722241E0,-2.111067772E0,9.805787086E0,1.660618901E0
8.528618543E0,-2.108675003E0,9.757930756E0,1.696511269E0
8.533514897E0,-2.096710920E0,9.664610863E0,1.715653777E0
8.538411199E0,-2.115853310E0,9.597611427E0,1.739582062E0
8.543307554E0,-2.120639086E0,9.530612946E0,1.753939033E0
8.548203856E0,-2.168495417E0,9.444471359E0,1.722832322E0
8.553100210E0,-2.206780672E0,9.396614075E0,1.691725612E0
8.557996512E0,-2.252244234E0,9.326923370E0,1.651047587E0
8.562892866E0,-2.273779631E0,9.274281502E0,1.569691658E0
8.567789220E0,-2.336292267E0,9.224032402E0,1.519143224E0
8.572685522E0,-2.343470573E0,9.178568840E0,1.480858088E0
8.577581876E0,-2.345863581E0,9.149854660E0,1.452144265E0
8.582478179E0,-2.338685036E0,9.133105278E0,1.442572951E0
8.587374533E0,-2.326720953E0,9.135498047E0,1.440180182E0
8.592270835E0,-2.302493572E0,9.149854660E0,1.425823212E0
8.597167189E0,-2.261815548E0,9.157032967E0,1.394716501E0
8.602063491E0,-2.261815548E0,9.195318222E0,1.397109270E0
8.606959845E0,-2.247458696E0,9.245567322E0,1.373181105E0
8.611856147E0,-2.223530531E0,9.360423088E0,1.366002679E0
8.616752501E0,-2.213959217E0,9.422935486E0,1.397109270E0
8.621666981E0,-2.185245275E0,9.544969559E0,1.447358608E0
8.626545158E0,-2.127817631E0,9.640682220E0,1.548156261E0
8.631459637E0,-2.101496458E0,9.726823807E0,1.631905079E0
8.636337814E0,-2.029711723E0,9.786644936E0,1.751546144E0
8.641234116E0,-1.989033818E0,9.884750366E0,1.861616015E0
8.646130470E0,-1.931606054E0,9.952048302E0,1.952543259E0
8.651026824E0,-1.850250125E0,9.975976944E0,2.014756680E0
8.655923126E0,-1.835893154E0,9.990333557E0,2.043470621E0
8.660819481E0,-1.804786444E0,9.978369713E0,2.007578135E0
8.665715783E0,-1.792822361E0,9.968798637E0,1.981257200E0
8.670630314E0,-1.768894196E0,9.925428391E0,1.916650891E0
8.675508439E0,-1.727917075E0,9.856036186E0,1.859223247E0
8.680404793E0,-1.696810365E0,9.793823242E0,1.792224169E0
8.685301095E0,-1.672882080E0,9.736394882E0,1.706082582E0
8.690215626E0,-1.656132340E0,9.659825325E0,1.631905079E0
8.695093751E0,-1.627418518E0,9.580862045E0,1.564906001E0
8.699990106E0,-1.646561027E0,9.549755096E0,1.511964798E0
8.704886408E0,-1.694417477E0,9.516255379E0,1.471286774E0
8.709782762E0,-1.711167336E0,9.463613510E0,1.444965720E0
8.714679064E0,-1.720738530E0,9.422935486E0,1.447358608E0
8.719575418E0,-1.689631939E0,9.391828537E0,1.468894005E0
8.724471720E0,-1.694417477E0,9.360423088E0,1.483250976E0
8.729368074E0,-1.723131418E0,9.377172470E0,1.485643744E0
8.734264429E0,-1.783251047E0,9.415757179E0,1.488036633E0
8.739160731E0,-1.840678811E0,9.422935486E0,1.526321769E0
8.744057085E0,-1.857428551E0,9.430113792E0,1.569691658E0
8.748953387E0,-1.838286042E0,9.439684868E0,1.634297848E0
8.753849741E0,-1.828714728E0,9.413364410E0,1.694118381E0
8.758746043E0,-1.795215130E0,9.391828537E0,1.718046665E0
8.763642397E0,-1.788036704E0,9.374779701E0,1.718046665E0
8.768538699E0,-1.776072621E0,9.384351730E0,1.713261008E0
8.773435054E0,-1.764108539E0,9.418149948E0,1.706082582E0
8.778331356E0,-1.727917075E0,9.425328255E0,1.696511269E0
8.783227710E0,-1.696810365E0,9.439684868E0,1.667797327E0
8.788124012E0,-1.680060625E0,9.468399048E0,1.667797327E0
8.793020366E0,-1.672882080E0,9.504291534E0,1.660618901E0
8.797916668E0,-1.677667737E0,9.537791252E0,1.634297848E0
8.802813022E0,-1.689631939E0,9.638289452E0,1.622333765E0
8.807709324E0,-1.706381679E0,9.681360245E0,1.651047587E0
8.812605679E0,-1.677667737E0,9.757930756E0,1.674975872E0
8.817501981E0,-1.639382601E0,9.803394318E0,1.713261008E0
8.822398335E0,-1.639382601E0,9.875179291E0,1.753939033E0
8.827294637E0,-1.615454435E0,9.906285286E0,1.808973908E0
8.832209168E0,-1.613061547E0,9.920642853E0,1.859223247E0
8.837087345E0,-1.615454435E0,9.947262764E0,1.861616015E0
8.841983647E0,-1.625025630E0,9.952048302E0,1.828116536E0
8.846880001E0,-1.596311808E0,9.939785004E0,1.789831281E0
8.851794481E0,-1.577169180E0,9.903892517E0,1.732403636E0
8.856672658E0,-1.579562068E0,9.860821724E0,1.703689694E0
8.861568960E0,-1.541276932E0,9.815358162E0,1.674975872E0
8.866465314E0,-1.495813251E0,9.772287369E0,1.646261930E0
8.871379845E0,-1.459920883E0,9.729216576E0,1.629512191E0
8.876257970E0,-1.428814173E0,9.722038269E0,1.572084427E0
8.881172449E0,-1.426421404E0,9.707681656E0,1.564906001E0
8.886050626E0,-1.419242978E0,9.671789169E0,1.560120344E0
8.890965106E0,-1.433599830E0,9.645467758E0,1.574477315E0
8.895843283E0,-1.412064433E0,9.585647583E0,1.550549030E0
8.900757762E0,-1.390529037E0,9.547362328E0,1.550549030E0
8.905635939E0,-1.380957723E0,9.540184021E0,1.564906001E0
8.910550470E0,-1.361815214E0,9.511469841E0,1.569691658E0
8.915428595E0,-1.392921925E0,9.506684303E0,1.538285851E0
8.920324897E0,-1.438385487E0,9.492327690E0,1.500000715E0
8.925221251E0,-1.471885085E0,9.501898766E0,1.478465319E0
8.930117554E0,-1.486241937E0,9.485149384E0,1.488036633E0
8.935013908E0,-1.519741535E0,9.451649666E0,1.492822170E0
8.939913699E0,-1.572383523E0,9.446864128E0,1.497607827E0
8.944806564E0,-1.625025630E0,9.432506561E0,1.543370605E0
8.949702866E0,-1.660917997E0,9.425328255E0,1.619940877E0
8.954599220E0,-1.699203134E0,9.399007797E0,1.708475351E0
8.959495522E0,-1.711167336E0,9.384351730E0,1.753939033E0
8.964391876E0,-1.725524187E0,9.391828537E0,1.782652855E0
8.969288231E0,-1.708774447E0,9.386744499E0,1.811366796E0
8.974184533E0,-1.696810365E0,9.399007797E0,1.816152334E0
8.979080887E0,-1.672882080E0,9.427721024E0,1.792224169E0
8.983977189E0,-1.648953915E0,9.499505997E0,1.765903115E0
8.988873543E0,-1.646561027E0,9.530612946E0,1.763510346E0
8.993769845E0,-1.569990754E0,9.533005714E0,1.770688772E0
8.998666199E0,-1.529312730E0,9.544969559E0,1.763510346E0
9.003562501E0,-1.510170221E0,9.556933403E0,1.763510346E0
9.008458804E0,-1.488634825E0,9.568898201E0,1.773081541E0
9.013355158E0,-1.502991676E0,9.633503914E0,1.749153376E0
9.018251512E0,-1.543669701E0,9.676574707E0,1.741974831E0
9.023147814E0,-1.536491275E0,9.698110580E0,1.706082582E0
9.028044168E0,-1.522134304E0,9.681360245E0,1.727617979E0
9.032940470E0,-1.529312730E0,9.693324089E0,1.741974831E0
9.037836824E0,-1.536491275E0,9.667003632E0,1.691725612E0
9.042733126E0,-1.531705618E0,9.645467758E0,1.677368641E0
9.047629481E0,-1.517348647E0,9.611968994E0,1.677368641E0
9.052525783E0,-1.531705618E0,9.566504478E0,1.732403636E0
9.057422137E0,-1.517348647E0,9.535398483E0,1.775474429E0
9.062318439E0,-1.493420482E0,9.492327690E0,1.799402595E0
9.067214793E0,-1.479063511E0,9.477970123E0,1.811366796E0
9.072111095E0,-1.457528114E0,9.492327690E0,1.770688772E0
9.077007449E0,-1.464706540E0,9.547362328E0,1.727617979E0
9.081903751E0,-1.488634825E0,9.611968994E0,1.701296926E0
9.086800106E0,-1.447956800E0,9.681360245E0,1.648654819E0
9.091714585E0,-1.414457321E0,9.717252731E0,1.627119422E0
9.096592762E0,-1.359422326E0,9.769894600E0,1.605584025E0
9.101507241E0,-1.325922847E0,9.865608215E0,1.629512191E0
9.106385418E0,-1.337886930E0,9.944570541E0,1.629512191E0
9.111299897E0,-1.333101273E0,1.000947666E1,1.634297848E0
9.116178074E0,-1.311565876E0,1.007886791E1,1.627119422E0
9.121074376E0,-1.304387450E0,1.009801102E1,1.646261930E0
9.125970731E0,-1.309173107E0,1.011715317E1,1.648654819E0
9.130885210E0,-1.285244823E0,1.013390255E1,1.641476393E0
9.135763387E0,-1.313958764E0,1.010997486E1,1.619940877E0
9.140677866E0,-1.328315616E0,1.005494022E1,1.584048629E0
9.145556043E0,-1.321137190E0,9.980762482E0,1.591227055E0
9.150452345E0,-1.342672586E0,9.891928673E0,1.574477315E0
9.155348699E0,-1.378564954E0,9.824930191E0,1.588834286E0
9.160245001E0,-1.404886007E0,9.774680138E0,1.619940877E0
9.165141356E0,-1.426421404E0,9.722038269E0,1.653440475E0
9.170055835E0,-1.445564032E0,9.681360245E0,1.658226132E0
9.174934012E0,-1.486241937E0,9.674181938E0,1.667797327E0
9.179830314E0,-1.486241937E0,9.690931320E0,1.677368641E0
9.184726668E0,-1.498206019E0,9.695717812E0,1.672582984E0
9.189626251E0,-1.572383523E0,9.726823807E0,1.674975872E0
9.194519324E0,-1.598704576E0,9.743574142E0,1.682154298E0
9.199415626E0,-1.584347725E0,9.741181374E0,1.682154298E0
9.204311981E0,-1.543669701E0,9.712467194E0,1.701296926E0
9.209208283E0,-1.522134304E0,9.659825325E0,1.727617979E0
9.214104637E0,-1.546062589E0,9.621540070E0,1.746760488E0
9.219000939E0,-1.529312730E0,9.600004196E0,1.770688772E0
9.223897293E0,-1.548455358E0,9.521040916E0,1.777867198E0
9.228793595E0,-1.560419440E0,9.518648148E0,1.763510346E0
9.233689949E0,-1.572383523E0,9.477970123E0,1.751546144E0
9.238586251E0,-1.558026671E0,9.494720459E0,1.737189293E0
9.243482606E0,-1.524527073E0,9.485149384E0,1.696511269E0
9.248378908E0,-1.505384564E0,9.516255379E0,1.660618901E0
9.253275262E0,-1.517348647E0,9.535398483E0,1.622333765E0
9.258171564E0,-1.471885085E0,9.521040916E0,1.591227055E0
9.263067918E0,-1.435992718E0,9.513862610E0,1.584048629E0
9.267964220E0,-1.414457321E0,9.535398483E0,1.569691658E0
9.272860574E0,-1.424028635E0,9.537791252E0,1.560120344E0
9.277756876E0,-1.400100350E0,9.566504478E0,1.557727575E0
9.282653231E0,-1.390529037E0,9.592825890E0,1.528714538E0
9.287549533E0,-1.345065475E0,9.595218658E0,1.533500195E0
9.292464012E0,-1.349851131E0,9.614361763E0,1.543370605E0
9.297342189E0,-1.371386528E0,9.597611427E0,1.533500195E0
9.302238543E0,-1.361815214E0,9.564111710E0,1.528714538E0
9.307134845E0,-1.349851131E0,9.537791252E0,1.538285851E0
9.312031199E0,-1.366600871E0,9.497113228E0,1.552941918E0
9.316927501E0,-1.378564954E0,9.466006279E0,1.598405480E0
9.321842033E0,-1.378564954E0,9.454042435E0,1.631905079E0
9.326720158E0,-1.390529037E0,9.434899330E0,1.643869162E0
9.331616512E0,-1.380957723E0,9.422935486E0,1.658226132E0
9.336512814E0,-1.352243900E0,9.420542717E0,1.667797327E0
9.341427345E0,-1.290030479E0,9.408578873E0,1.682154298E0
9.346305470E0,-1.242174029E0,9.420542717E0,1.665404558E0
9.351220001E0,-1.189232826E0,9.456435204E0,1.665404558E0
9.356098126E0,-1.143769264E0,9.492327690E0,1.670190215E0
9.361012658E0,-1.107876897E0,9.559326172E0,1.655833244E0
9.365890783E0,-1.086341500E0,9.621540070E0,1.670190215E0
9.370787137E0,-1.081555843E0,9.678967476E0,1.718046665E0
9.375683439E0,-1.076770186E0,9.731609344E0,1.732403636E0
9.380583439E0,-1.048056364E0,9.784252167E0,1.758724689E0
9.385476095E0,-1.021735311E0,9.848857880E0,1.768295884E0
9.390390626E0,-9.978070259E-1,9.863214493E0,1.792224169E0
9.395268751E0,-9.786644578E-1,9.908679008E0,1.820937991E0
9.400168856E0,-9.595218897E-1,9.964012146E0,1.806581140E0
9.405061408E0,-9.164510965E-1,9.992726326E0,1.804188251E0
9.409961304E0,-8.949156404E-1,9.999904633E0,1.806581140E0
9.414854064E0,-8.638089895E-1,9.966405869E0,1.818545222E0
9.419750418E0,-8.542376757E-1,9.896714211E0,1.830509305E0
9.424646720E0,-8.327022791E-1,9.851250648E0,1.832902193E0
9.429640626E0,-8.303094506E-1,9.777072906E0,1.852044702E0
9.434439324E0,-8.255237937E-1,9.726823807E0,1.875972986E0
9.439335731E0,-8.303094506E-1,9.705288887E0,1.899901152E0
9.444232033E0,-8.279166222E-1,9.676574707E0,1.897508383E0
9.449128387E0,-8.183453679E-1,9.674181938E0,1.914258122E0
9.454024689E0,-8.087740541E-1,9.633503914E0,1.868794441E0
9.458921043E0,-8.015955687E-1,9.633503914E0,1.861616015E0
9.463817345E0,-7.944171429E-1,9.659825325E0,1.823330879E0
9.468713699E0,-7.848458290E-1,9.643074989E0,1.816152334E0
9.473610001E0,-8.015955687E-1,9.676574707E0,1.813759565E0
9.478506356E0,-7.680960894E-1,9.676574707E0,1.868794441E0
9.483402658E0,-7.274180651E-1,9.628718376E0,1.914258122E0
9.488299012E0,-6.891329288E-1,9.619147301E0,1.942971945E0
9.493195366E0,-7.082754970E-1,9.619147301E0,1.971685886E0
9.498091668E0,-6.963114142E-1,9.619147301E0,1.974078655E0
9.502987970E0,-6.819544435E-1,9.657432556E0,1.995614052E0
9.507884324E0,-6.867401004E-1,9.674181938E0,2.002792597E0
9.512780679E0,-6.891329288E-1,9.712467194E0,1.993221283E0
9.517676981E0,-7.034898400E-1,9.765109062E0,1.947757602E0
9.522573335E0,-7.034898400E-1,9.786644936E0,1.919043779E0
9.527469637E0,-7.633104324E-1,9.812965393E0,1.828116536E0
9.532365991E0,-7.992027402E-1,9.808179855E0,1.818545222E0
9.537262293E0,-8.590233326E-1,9.815358162E0,1.768295884E0
9.542158647E0,-8.398807645E-1,9.784252167E0,1.708475351E0
9.547054949E0,-8.398807645E-1,9.738788605E0,1.672582984E0
9.551951251E0,-8.087740541E-1,9.693324089E0,1.615155339E0
9.556847606E0,-8.111668825E-1,9.633503914E0,1.567298889E0
9.561762137E0,-7.968099117E-1,9.554540634E0,1.511964798E0
9.566640262E0,-8.207381964E-1,9.516255379E0,1.480858088E0
9.571536616E0,-8.279166222E-1,9.477970123E0,1.466501236E0
9.576432918E0,-9.068797827E-1,9.473184586E0,1.440180182E0
9.581347449E0,-9.762716293E-1,9.458827972E0,1.461715579E0
9.586225574E0,-1.012163997E0,9.437292099E0,1.502393484E0
9.591140106E0,-1.045663476E0,9.437292099E0,1.540678620E0
9.596018231E0,-1.050449133E0,9.432506561E0,1.586441398E0
9.600932710E0,-1.050449133E0,9.456435204E0,1.562513232E0
9.605810887E0,-1.093519926E0,9.499505997E0,1.526321769E0
9.610725418E0,-1.105484009E0,9.571290970E0,1.478465319E0
9.615603543E0,-1.127019525E0,9.664610863E0,1.435394526E0
9.620503387E0,-1.155733347E0,9.774680138E0,1.423430324E0
9.625396199E0,-1.179661512E0,9.805787086E0,1.466501236E0
9.630310731E0,-1.170090318E0,9.858428955E0,1.550549030E0
9.635188856E0,-1.158126116E0,9.860821724E0,1.658226132E0
9.640088595E0,-1.167697430E0,9.812965393E0,1.746760488E0
9.644981512E0,-1.213460207E0,9.734002113E0,1.820937991E0
9.649877866E0,-1.203888893E0,9.631111145E0,1.844866276E0
9.654774168E0,-1.201496124E0,9.523433685E0,1.837687731E0
9.659670522E0,-1.177268744E0,9.403793335E0,1.828116536E0
9.664566824E0,-1.208674550E0,9.348459244E0,1.820937991E0
9.669463179E0,-1.223031521E0,9.305388451E0,1.813759565E0
9.674359481E0,-1.213460207E0,9.298210144E0,1.828116536E0
9.679255835E0,-1.203888893E0,9.259924889E0,1.818545222E0
9.684152189E0,-1.223031521E0,9.267103195E0,1.828116536E0
9.689051981E0,-1.239781260E0,9.267103195E0,1.830509305E0
9.693944845E0,-1.251745343E0,9.281459808E0,1.820937991E0
9.698841147E0,-1.282852054E0,9.300602913E0,1.849651933E0
9.703737501E0,-1.275673628E0,9.298210144E0,1.868794441E0
9.708633804E0,-1.266102314E0,9.319745064E0,1.859223247E0
9.713530158E0,-1.268495083E0,9.329316139E0,1.830509305E0
9.718426460E0,-1.285244823E0,9.360423088E0,1.782652855E0
9.723322814E0,-1.251745343E0,9.408578873E0,1.739582062E0
9.728219116E0,-1.234995604E0,9.449256897E0,1.684547186E0
9.733115470E0,-1.203888893E0,9.511469841E0,1.643869162E0
9.738011772E0,-1.196411371E0,9.609575272E0,1.636690736E0
9.742908126E0,-1.218245864E0,9.678967476E0,1.612762451E0
9.747804429E0,-1.251745343E0,9.801001549E0,1.617548108E0
9.752700783E0,-1.220638633E0,9.844072342E0,1.596012712E0
9.757597085E0,-1.162911773E0,9.884750366E0,1.569691658E0
9.762493439E0,-1.136590719E0,9.906285286E0,1.531107426E0
9.767389741E0,-1.143769264E0,9.894321442E0,1.533500195E0
9.772286095E0,-1.160519004E0,9.908679008E0,1.552941918E0
9.777182449E0,-1.199103236E0,9.872786522E0,1.610369682E0
9.782078751E0,-1.256531000E0,9.834501266E0,1.672582984E0
9.786975106E0,-1.304387450E0,9.801001549E0,1.744367719E0
9.791871408E0,-1.347458243E0,9.748359680E0,1.761117458E0
9.796767762E0,-1.366600871E0,9.655039787E0,1.816152334E0
9.801664064E0,-1.385743380E0,9.607182503E0,1.816152334E0
9.806560418E0,-1.390529037E0,9.506684303E0,1.847259045E0
9.811474949E0,-1.426421404E0,9.420542717E0,1.847259045E0
9.816353074E0,-1.467099428E0,9.360423088E0,1.866401672E0
9.821267033E0,-1.538884044E0,9.322137833E0,1.880758643E0
9.826145731E0,-1.553241014E0,9.240781784E0,1.935793519E0
9.831060262E0,-1.560419440E0,9.166604042E0,1.978864312E0
9.835938387E0,-1.574776411E0,9.135498047E0,2.000399828E0
9.840852918E0,-1.581954837E0,9.121140480E0,2.014756680E0
9.845731043E0,-1.601097465E0,9.161818504E0,1.971685886E0
9.850645574E0,-1.581954837E0,9.214461327E0,1.887937069E0
9.855523699E0,-1.572383523E0,9.319745064E0,1.797009826E0
9.860420054E0,-1.500598907E0,9.454042435E0,1.694118381E0
9.865316356E0,-1.424028635E0,9.585647583E0,1.596012712E0
9.870212710E0,-1.352243900E0,9.683753014E0,1.572084427E0
9.875109012E0,-1.311565876E0,9.743574142E0,1.622333765E0
9.880005366E0,-1.273280740E0,9.817750931E0,1.713261008E0
9.884901668E0,-1.251745343E0,9.865608215E0,1.804188251E0
9.889816199E0,-1.244566917E0,9.915857315E0,1.873580098E0
9.894694376E0,-1.218245864E0,9.944570541E0,1.864008784E0
9.899590679E0,-1.232602715E0,9.956833839E0,1.787438512E0
9.904487033E0,-1.246959686E0,9.942177773E0,1.725225091E0
9.909383335E0,-1.261316657E0,9.891928673E0,1.706082582E0
9.914279689E0,-1.258923769E0,9.824930191E0,1.730010748E0
9.919175991E0,-1.301994562E0,9.808179855E0,1.756331801E0
9.924072345E0,-1.364207983E0,9.812965393E0,1.773081541E0
9.928968647E0,-1.464706540E0,9.808179855E0,1.768295884E0
9.933865001E0,-1.462313771E0,9.781859398E0,1.758724689E0
9.938761356E0,-1.488634825E0,9.726823807E0,1.732403636E0
9.943657658E0,-1.495813251E0,9.681360245E0,1.718046665E0
9.948554012E0,-1.541276932E0,9.623932838E0,1.663011789E0
9.953450314E0,-1.589133382E0,9.580862045E0,1.634297848E0
9.958346668E0,-1.660917997E0,9.549755096E0,1.636690736E0
9.963242970E0,-1.703988791E0,9.501898766E0,1.617548108E0
9.968139324E0,-1.739881158E0,9.449256897E0,1.603191137E0
9.973035679E0,-1.797608018E0,9.418149948E0,1.574477315E0
9.977931981E0,-1.855035782E0,9.425328255E0,1.550549030E0
9.982828335E0,-1.936391711E0,9.427721024E0,1.516750455E0
9.987724637E0,-1.996212244E0,9.427721024E0,1.468894005E0
9.992620991E0,-2.070389748E0,9.439684868E0,1.437787294E0
9.997517293E0,-2.115853310E0,9.422935486E0,1.416251898E0
1.000241365E1,-2.142174482E0,9.386744499E0,1.423430324E0
1.000731000E1,-2.158924341E0,9.367601395E0,1.435394526E0
1.001220630E1,-2.190030813E0,9.353244781E0,1.461715579E0
1.001710266E1,-2.221137524E0,9.362815857E0,1.466501236E0
1.002199896E1,-2.242672920E0,9.369994164E0,1.502393484E0
1.002689531E1,-2.211566210E0,9.341280937E0,1.504786372E0
1.003179162E1,-2.192423820E0,9.336494446E0,1.519143224E0
1.003668797E1,-2.209173441E0,9.348459244E0,1.504786372E0
1.004158432E1,-2.259422779E0,9.418149948E0,1.485643744E0
1.004648063E1,-2.314457655E0,9.494720459E0,1.442572951E0
1.005137698E1,-2.336292267E0,9.559326172E0,1.433001637E0
1.005627328E1,-2.316850424E0,9.616754532E0,1.428215981E0
1.006116964E1,-2.280958176E0,9.688538551E0,1.449751377E0
1.006606599E1,-2.280958176E0,9.734002113E0,1.478465319E0
1.007096229E1,-2.257030010E0,9.817750931E0,1.535893083E0
1.007585865E1,-2.223530531E0,9.863214493E0,1.564906001E0
1.008075495E1,-2.185245275E0,9.918250084E0,1.548156261E0
1.008565130E1,-2.115853310E0,9.947262764E0,1.492822170E0
1.009056578E1,-1.977069736E0,9.964012146E0,1.425823212E0
1.009544396E1,-1.910070658E0,9.947262764E0,1.368395448E0
1.010034370E1,-1.898106575E0,9.959226608E0,1.322931767E0
1.010523662E1,-1.902892232E0,1.001426220E1,1.258325577E0
1.011013297E1,-1.989033818E0,1.006451130E1,1.220040441E0
1.011502927E1,-2.046461582E0,1.008365345E1,1.205683470E0
1.011992563E1,-2.084746838E0,1.005972576E1,1.184148073E0
1.012482198E1,-2.120639086E0,1.005972576E1,1.179362416E0
1.012971828E1,-2.146960020E0,1.002861881E1,1.203290701E0
1.013461464E1,-2.192423820E0,1.000708294E1,1.277468204E0
1.013960849E1,-2.254637241E0,9.978369713E0,1.334895968E0
1.014440724E1,-2.343470573E0,9.968798637E0,1.423430324E0
1.014930365E1,-2.384148598E0,9.939785004E0,1.485643744E0
1.015419995E1,-2.455933332E0,9.901499748E0,1.572084427E0
1.015909630E1,-2.496611357E0,9.887143135E0,1.648654819E0
1.016399266E1,-2.542074919E0,9.822537422E0,1.710868239E0
1.016888896E1,-2.554039001E0,9.774680138E0,1.775474429E0
1.017378531E1,-2.554039001E0,9.678967476E0,1.832902193E0
1.017868162E1,-2.566003084E0,9.619147301E0,1.861616015E0
1.018357797E1,-2.573181629E0,9.494720459E0,1.868794441E0
1.018857182E1,-2.570788860E0,9.389435768E0,1.840080619E0
1.019337057E1,-2.577967405E0,9.298210144E0,1.808973908E0
1.019826698E1,-2.625823736E0,9.185747147E0,1.768295884E0
1.020316328E1,-2.635395050E0,9.070891380E0,1.706082582E0
1.020805964E1,-2.642573595E0,8.999106407E0,1.627119422E0
1.021295599E1,-2.630609512E0,8.908179283E0,1.574477315E0
1.021785229E1,-2.616252422E0,8.857930183E0,1.500000715E0
1.022274865E1,-2.601895571E0,8.838788033E0,1.433001637E0
1.022764495E1,-2.618645191E0,8.836395264E0,1.397109270E0
1.023254130E1,-2.633002281E0,8.853144646E0,1.380359530E0
1.023743766E1,-2.654537678E0,8.889037132E0,1.416251898E0
1.024233396E1,-2.683251381E0,8.917751312E0,1.449751377E0
1.024723031E1,-2.683251381E0,8.917751312E0,1.488036633E0
1.025212667E1,-2.656930447E0,8.898608208E0,1.562513232E0
1.025702297E1,-2.683251381E0,8.877073288E0,1.660618901E0
1.026193750E1,-2.673680305E0,8.893822670E0,1.715653777E0
1.026681568E1,-2.716751099E0,8.889037132E0,1.761117458E0
1.027171198E1,-2.735893488E0,8.920144081E0,1.852044702E0
1.027660834E1,-2.769393206E0,8.932107925E0,1.916650891E0
1.028150464E1,-2.752643347E0,8.936893463E0,1.950150490E0
1.028640099E1,-2.771785975E0,8.975178719E0,1.962114573E0
1.029131552E1,-2.781357288E0,8.987142563E0,1.971685886E0
1.029619365E1,-2.802892685E0,9.044570923E0,1.990828395E0
1.030110818E1,-2.786142826E0,9.128319740E0,2.036292076E0
