"Time (s)","Gyroscope x (rad/s)","Gyroscope y (rad/s)","Gyroscope z (rad/s)"
7.155255400E-2,-1.449235082E-1,-9.521581978E-2,-3.619270027E-2
7.643067900E-2,-1.406475753E-1,-6.772769243E-2,-4.169032723E-2
8.137187600E-2,-1.388150454E-1,-5.062396824E-2,-4.963133857E-2
8.626843900E-2,-1.375933439E-1,-4.634803534E-2,-6.123743951E-2
9.111963700E-2,-1.382041872E-1,-4.756972939E-2,-6.917845458E-2
9.601593900E-2,-1.382041872E-1,-4.451549426E-2,-7.467607409E-2
1.009122930E-1,-1.351499557E-1,-3.657447919E-2,-7.956285775E-2
1.058270330E-1,-1.265980899E-1,-2.191414498E-2,-8.139539510E-2
1.107048970E-1,-1.119377613E-1,-9.697199799E-3,-8.322793990E-2
1.156011990E-1,-9.483403713E-2,-6.642963737E-3,-8.017370105E-2
1.204975540E-1,-8.078455180E-2,-1.763821393E-2,-7.711946964E-2
1.254389600E-1,-6.612421572E-2,-2.985516004E-2,-7.284353673E-2
1.303350540E-1,-4.963133857E-2,-3.962871432E-2,-6.795676053E-2
1.351865120E-1,-3.191677108E-2,-5.001311749E-2,-6.429167092E-2
1.400828140E-1,-1.542389300E-2,-6.039752439E-2,-6.490252167E-2
1.449791160E-1,-4.428642802E-3,-6.956022978E-2,-6.856760383E-2
1.498935950E-1,4.581354442E-4,-7.078192383E-2,-7.223268598E-2
1.547717720E-1,3.512371797E-3,-6.772769243E-2,-7.528692484E-2
1.596680740E-1,9.620844387E-3,-6.284090877E-2,-7.773031294E-2
1.645643760E-1,2.367033064E-2,-5.917582661E-2,-8.139539510E-2
1.694789080E-1,4.260659590E-2,-5.673243850E-2,-8.261708915E-2
1.743570330E-1,6.032116711E-2,-5.245650932E-2,-8.261708915E-2
1.792572410E-1,7.498150319E-2,-4.023956135E-2,-7.773031294E-2
1.841496890E-1,8.719844371E-2,-2.435753495E-2,-7.040014863E-2
1.890641680E-1,9.941539168E-2,-1.336228382E-2,-6.612421572E-2
1.939422930E-1,1.104106456E-1,-4.199574701E-3,-6.795676053E-2
1.988385950E-1,1.201841980E-1,7.406522986E-3,-7.223268598E-2
2.037349490E-1,1.269035190E-1,2.451024577E-2,-7.589777559E-2
2.086312510E-1,1.317902952E-1,3.917058185E-2,-7.773031294E-2
2.135275540E-1,1.360662282E-1,4.344651103E-2,-8.017370105E-2
2.184239080E-1,1.342336833E-1,2.878617682E-2,-8.567132801E-2
2.233202100E-1,1.244601309E-1,-2.367033157E-3,-8.689302206E-2
2.282165120E-1,1.116323397E-1,-3.352024406E-2,-7.711946964E-2
2.331128660E-1,1.030804738E-1,-6.589514762E-2,-5.940489471E-2
2.381058870E-1,1.024696305E-1,-1.013242900E-1,-3.802524135E-2
2.429054180E-1,1.110214889E-1,-1.349208951E-1,-1.481304597E-2
2.478017720E-1,1.214058921E-1,-1.654632539E-1,1.084253844E-2
2.526981260E-1,1.336228400E-1,-1.911188364E-1,3.955236077E-2
2.575944290E-1,1.458397806E-1,-2.118876427E-1,6.581879407E-2
2.624907310E-1,1.580567211E-1,-2.320456058E-1,9.025268257E-2
2.673870850E-1,1.708845198E-1,-2.436517030E-1,1.104106456E-1
2.722833870E-1,1.800472289E-1,-2.430408597E-1,1.256818175E-1
2.771796890E-1,1.831014603E-1,-2.277696729E-1,1.366770715E-1
2.820760430E-1,1.824906170E-1,-1.996707022E-1,1.458397806E-1
2.869723450E-1,1.794363856E-1,-1.685174853E-1,1.495812237E-1
2.918686470E-1,1.739387512E-1,-1.410293579E-1,1.440072358E-1
2.967649490E-1,1.641651988E-1,-1.062110662E-1,1.324011385E-1
3.016613040E-1,1.519482583E-1,-6.100837141E-2,1.159082651E-1
3.065576060E-1,1.391204596E-1,-7.253811229E-3,9.575030953E-2
3.114539080E-1,1.256818175E-1,5.627430230E-2,7.253811508E-2
3.163502620E-1,1.134648770E-1,1.301868260E-1,4.810422286E-2
3.212465640E-1,1.036913246E-1,2.102078199E-1,2.244863659E-2
3.261428660E-1,9.575030953E-2,2.865637243E-1,-1.527118147E-4
3.310392200E-1,8.658760041E-2,3.574219942E-1,-2.031067200E-2
3.359355220E-1,8.047912270E-2,4.307236671E-1,-3.619270027E-2
3.408318240E-1,7.742489129E-2,4.966951907E-1,-4.535540938E-2
3.457281790E-1,7.559234649E-2,5.388436317E-1,-5.390727147E-2
3.506244810E-1,7.559234649E-2,5.541148186E-1,-5.940489471E-2
3.555207830E-1,7.620319724E-2,5.547256470E-1,-6.001574174E-2
3.604170850E-1,7.925742865E-2,5.553365350E-1,-5.085303262E-2
3.653134390E-1,8.475505561E-2,5.559473634E-1,-3.558185324E-2
3.702281790E-1,9.513945878E-2,5.565581918E-1,-1.725643501E-2
3.751060430E-1,1.165191159E-1,5.376219153E-1,2.901524538E-3
3.800023970E-1,1.525591016E-1,4.710395932E-1,2.122694254E-2
3.848986990E-1,2.020377368E-1,3.494809866E-1,4.138490185E-2
3.898131790E-1,2.588465214E-1,1.912715435E-1,6.459710002E-2
3.946913560E-1,3.199312389E-1,2.328855172E-2,8.842013776E-2
3.996058350E-1,3.773508966E-1,-1.343100369E-1,1.049130186E-1
4.044839600E-1,4.274403751E-1,-2.644205093E-1,1.104106456E-1
4.093803140E-1,4.677563012E-1,-3.572692871E-1,1.049130186E-1
4.142766160E-1,4.915793240E-1,-4.036936760E-1,8.903098851E-2
4.191729180E-1,4.958552718E-1,-3.981960714E-1,6.581879407E-2
4.240692720E-1,4.818057716E-1,-3.365004957E-1,3.771981969E-2
4.289691680E-1,4.555393457E-1,-2.277696729E-1,2.901524538E-3
4.338618760E-1,4.188885093E-1,-7.689040154E-2,-3.802524135E-2
4.387617720E-1,3.773508966E-1,1.094180122E-1,-9.116895497E-2
4.436545330E-1,3.303156495E-1,3.079433739E-1,-1.571404636E-1
4.485508350E-1,2.771719396E-1,5.089121461E-1,-2.286095917E-1
4.534471370E-1,2.289150059E-1,7.147676349E-1,-2.970244884E-1
4.583434910E-1,1.898207814E-1,9.255099297E-1,-3.538332880E-1
4.632397930E-1,1.605001241E-1,1.105709910E0,-4.051444530E-1
4.681360950E-1,1.525591016E-1,1.240096331E0,-4.503471553E-1
4.730324490E-1,1.727170646E-1,1.331112504E0,-4.766135812E-1
4.779287510E-1,2.124221325E-1,1.372039318E0,-4.845545888E-1
4.828250540E-1,2.625116110E-1,1.364098310E0,-4.760027230E-1
4.877214080E-1,3.260397315E-1,1.309122086E0,-4.527905285E-1
4.926177100E-1,4.011739492E-1,1.218716621E0,-4.118637741E-1
4.975140120E-1,4.860817194E-1,1.114872575E0,-3.599417508E-1
5.024103140E-1,5.734328628E-1,9.908705950E-1,-3.049654961E-1
5.073066680E-1,6.620057225E-1,8.186116815E-1,-2.524326444E-1
5.122029700E-1,7.585959435E-1,5.620558262E-1,-2.023431510E-1
5.170992720E-1,8.569423556E-1,2.560213506E-1,-1.663031727E-1
5.219956260E-1,9.357416630E-1,-5.551074445E-2,-1.388150454E-1
5.268919290E-1,9.827768803E-1,-3.462740481E-1,-1.052184403E-1
5.317882310E-1,1.002323985E0,-5.931326747E-1,-6.734590977E-2
5.366845850E-1,1.008432508E0,-8.448017836E-1,-4.657710344E-2
5.415808870E-1,1.031033874E0,-1.225970507E0,-8.444963396E-2
5.464771890E-1,1.046915889E0,-1.663337111E0,-1.437018216E-1
5.513734910E-1,1.036531448E0,-2.104979753E0,-1.907370538E-1
5.562698450E-1,1.008432508E0,-2.519134045E0,-2.353289127E-1
5.611661470E-1,9.778901339E-1,-2.881977320E0,-2.964136302E-1
5.660624490E-1,9.442934990E-1,-3.205726385E0,-3.660502136E-1
5.709588040E-1,9.039775729E-1,-3.487403393E0,-4.063661397E-1
5.758551060E-1,8.691592813E-1,-3.733574867E0,-4.112529159E-1
5.807514080E-1,8.514447212E-1,-3.935154438E0,-4.057552814E-1
5.856477620E-1,8.373952508E-1,-4.057323933E0,-4.033119082E-1
5.905622410E-1,8.062420487E-1,-4.073816776E0,-3.972034156E-1
5.954403660E-1,7.488223910E-1,-3.980357170E0,-3.684936166E-1
6.003367200E-1,6.846070886E-1,-3.779388428E0,-3.165715933E-1
6.052330220E-1,6.143596172E-1,-3.480684042E0,-2.475458533E-1
6.101293240E-1,5.343386531E-1,-3.082946062E0,-2.053973973E-1
6.150256790E-1,4.482091665E-1,-2.674289227E0,-2.127275616E-1
6.199219810E-1,3.565820754E-1,-2.260134935E0,-2.591519356E-1
6.248182830E-1,2.619007528E-1,-1.856364846E0,-3.153499067E-1
6.297330740E-1,1.568350345E-1,-1.413500547E0,-3.495573401E-1
6.346109390E-1,3.344388679E-2,-8.918370008E-1,-3.342861533E-1
6.395254700E-1,-9.972081333E-2,-3.138991296E-1,-2.658712566E-1
6.444035430E-1,-2.011214644E-1,1.827196926E-1,-1.840177327E-1
6.493180740E-1,-2.970244884E-1,6.604022384E-1,-9.177979827E-2
6.541961990E-1,-3.868190348E-1,1.067226529E0,7.788302377E-3
6.590925010E-1,-4.723376334E-1,1.377536893E0,1.085781008E-1
6.639888560E-1,-5.499152541E-1,1.602328658E0,1.911188364E-1
6.688851580E-1,-6.116108298E-1,1.742212772E0,2.454842478E-1
6.737814600E-1,-6.574243903E-1,1.780085325E0,2.699181437E-1
6.786778140E-1,-6.818582416E-1,1.710448623E0,2.601445615E-1
6.835741160E-1,-6.891884208E-1,1.540022254E0,2.186069638E-1
6.884738560E-1,-6.879667044E-1,1.298737645E0,1.654632539E-1
6.933667720E-1,-6.818582416E-1,1.029353976E0,1.091889441E-1
6.982630740E-1,-6.726955175E-1,7.599703670E-1,5.115845799E-2
7.031593760E-1,-6.629219651E-1,5.229616165E-1,-2.596100792E-3
7.080556790E-1,-6.482616663E-1,3.152735531E-1,-4.352286831E-2
7.129520330E-1,-6.201626658E-1,1.479013860E-1,-7.711946964E-2
7.178483350E-1,-5.890094638E-1,8.926005661E-2,-1.052184403E-1
7.227446370E-1,-5.774033666E-1,1.631725729E-1,-1.168245375E-1
7.276409910E-1,-5.822901726E-1,3.061108291E-1,-1.217113137E-1
7.325372930E-1,-5.890094638E-1,4.618768692E-1,-1.223221645E-1
7.374335950E-1,-5.951179266E-1,6.701757908E-1,-1.186570823E-1
7.423299490E-1,-6.030589342E-1,9.389485717E-1,-1.101052165E-1
7.472262510E-1,-6.073349118E-1,1.243761420E0,-9.605573118E-2
7.521225540E-1,-6.048914790E-1,1.529637933E0,-8.689302206E-2
7.570188560E-1,-5.987830162E-1,1.768479228E0,-9.116895497E-2
7.619152100E-1,-5.847335458E-1,1.948068261E0,-1.088835225E-1
7.668115120E-1,-5.657972693E-1,2.068405151E0,-1.375933439E-1
7.717078140E-1,-5.493044257E-1,2.139339924E0,-1.589729935E-1
7.766041680E-1,-5.425850749E-1,2.165606260E0,-1.675248593E-1
7.815004700E-1,-5.499152541E-1,2.163162947E0,-1.699682474E-1
7.863967720E-1,-5.676298141E-1,2.124679565E0,-1.687465608E-1
7.913113040E-1,-5.755708218E-1,2.032976151E0,-1.559187621E-1
7.961894290E-1,-5.541911721E-1,1.879042506E0,-1.272089481E-1
8.010857310E-1,-5.034908652E-1,1.667689323E0,-9.055810422E-2
8.059820850E-1,-4.436278343E-1,1.431902289E0,-5.146388337E-2
8.108783870E-1,-3.929274976E-1,1.209553957E0,-8.093725890E-3
8.157746890E-1,-3.636068404E-1,1.023856401E0,5.726693198E-2
8.206710430E-1,-3.458922505E-1,8.803072572E-1,1.452289373E-1
8.255673450E-1,-3.275668323E-1,7.776849270E-1,2.485384792E-1
8.304818760E-1,-2.988570333E-1,7.098808885E-1,3.542150557E-1
8.353599490E-1,-2.664821148E-1,6.701757908E-1,4.598916173E-1
8.402744810E-1,-2.377723008E-1,6.518504024E-1,5.643464923E-1
8.451526060E-1,-2.127275616E-1,6.487961411E-1,6.633037925E-1
8.500489080E-1,-1.895153672E-1,6.695649624E-1,7.494332194E-1
8.549452620E-1,-1.589729935E-1,7.300388217E-1,8.239566088E-1
8.598597410E-1,-1.168245375E-1,8.289960623E-1,8.899281025E-1
8.647378660E-1,-6.184828654E-2,9.572740197E-1,9.326874018E-1
8.696523450E-1,1.679830020E-3,1.098990560E0,9.461260438E-1
8.745305220E-1,6.459710002E-2,1.230322719E0,9.278006554E-1
8.794450010E-1,1.220167428E-1,1.335999370E0,8.832087517E-1
8.843231260E-1,1.696628332E-1,1.409300923E0,8.135721684E-1
8.892376580E-1,2.081461996E-1,1.448395252E0,7.213342786E-1
8.941157830E-1,2.386885732E-1,1.444730163E0,6.095492244E-1
8.990120850E-1,2.655658424E-1,1.407468438E0,4.824929833E-1
9.039084390E-1,2.924431264E-1,1.347605467E0,3.389438689E-1
9.088047410E-1,3.174878657E-1,1.270027757E0,1.789018959E-1
9.137010430E-1,3.358132839E-1,1.166794658E0,1.939439960E-2
9.185973970E-1,3.474193811E-1,1.042792678E0,-1.314848661E-1
9.234936990E-1,3.559712470E-1,9.187906384E-1,-2.609844804E-1
9.283900010E-1,3.645231128E-1,8.155574203E-1,-3.617742956E-1
9.332863040E-1,3.749074936E-1,7.373690009E-1,-4.277457893E-1
9.382801060E-1,3.846810758E-1,6.738408804E-1,-4.607315361E-1
9.430789080E-1,3.920112252E-1,6.115344763E-1,-4.570664763E-1
9.479753140E-1,3.944546282E-1,5.455629826E-1,-4.210264683E-1
9.528716160E-1,3.938437700E-1,4.802022874E-1,-3.697153032E-1
9.577679180E-1,3.920112252E-1,4.111765623E-1,-3.080197275E-1
9.626642200E-1,3.889569938E-1,3.238253891E-1,-2.402156889E-1
9.675605740E-1,3.822376728E-1,2.157054394E-1,-1.705790907E-1
9.724568760E-1,3.791834414E-1,1.149156392E-1,-1.131594554E-1
9.773531790E-1,3.846810758E-1,5.444176123E-2,-6.245913357E-2
9.822495330E-1,3.968980014E-1,4.955498502E-2,-7.482878864E-3
9.871458350E-1,4.158342779E-1,9.536852688E-2,6.581879407E-2
9.920421370E-1,4.396573007E-1,1.894390136E-1,1.538571566E-1
9.969384390E-1,4.610369802E-1,3.195494711E-1,2.405974567E-1
1.001834793E0,4.708105326E-1,4.539358616E-1,3.187859058E-1
1.006731095E0,4.598152637E-1,5.693860054E-1,3.890333474E-1
1.011627397E0,4.347705245E-1,6.530720592E-1,4.311818182E-1
1.016523751E0,4.023956358E-1,7.104917169E-1,4.299601018E-1
1.021420054E0,3.663556576E-1,7.404232621E-1,3.994177580E-1
1.026316356E0,3.278722763E-1,7.453100085E-1,3.407764137E-1
1.031212710E0,2.893888950E-1,7.349256277E-1,2.638096511E-1
1.036109012E0,2.472404242E-1,7.129350901E-1,1.850103587E-1
1.041005314E0,2.026485801E-1,6.866686940E-1,1.097997949E-1
1.045901668E0,1.556133330E-1,6.634564996E-1,4.443913698E-2
1.050797970E0,1.195733473E-1,6.243622303E-1,-1.359135192E-2
1.055694272E0,1.036913246E-1,5.437304378E-1,-6.123743951E-2
1.060608804E0,1.036913246E-1,4.062897861E-1,-1.015533581E-1
1.065486929E0,1.030804738E-1,2.328091562E-1,-1.455343664E-1
1.070401408E0,9.452861547E-2,6.360447407E-2,-1.944021434E-1
1.075279533E0,8.414421231E-2,-5.978667364E-2,-2.328855246E-1
1.080175887E0,8.536590636E-2,-1.214822456E-1,-2.481566966E-1
1.085072189E0,1.000262350E-1,-1.330883503E-1,-2.377723008E-1
1.089986668E0,1.201841980E-1,-1.227039397E-1,-2.072299272E-1
1.094864845E0,1.452289373E-1,-1.080436110E-1,-1.644706279E-1
1.099779324E0,1.733279079E-1,-8.788564801E-2,-1.119377613E-1
1.104657449E0,2.014268786E-1,-6.100837141E-2,-5.024218559E-2
1.109571981E0,2.301367074E-1,-3.718532622E-2,2.611372061E-2
1.114450106E0,2.612899244E-1,-1.885990985E-2,1.049130186E-1
1.119349949E0,2.924431264E-1,-1.756185899E-3,1.703500301E-1
1.124242710E0,3.107685447E-1,1.168245357E-2,2.137201875E-1
1.129139064E0,3.101576865E-1,2.756448276E-2,2.369323820E-1
1.134035366E0,2.912214398E-1,5.383091420E-2,2.479276359E-1
1.138935158E0,2.619007528E-1,8.864920586E-2,2.399866134E-1
1.143828022E0,2.356343269E-1,1.265217364E-1,1.947839260E-1
1.148724324E0,2.130329758E-1,1.595074832E-1,1.305686086E-1
1.153620626E0,1.892099380E-1,1.839413792E-1,6.093201414E-2
1.158516929E0,1.653869003E-1,2.053210288E-1,-7.482878864E-3
1.163413283E0,1.458397806E-1,2.334200144E-1,-7.773031294E-2
1.168309585E0,1.311794519E-1,2.578538954E-1,-1.504211426E-1
1.173205887E0,1.201841980E-1,2.786227167E-1,-2.108950168E-1
1.178102241E0,1.159082651E-1,3.042782843E-1,-2.506000996E-1
1.182998543E0,1.177408099E-1,3.378748894E-1,-2.738122940E-1
1.187898126E0,1.232384369E-1,3.708606362E-1,-2.768665254E-1
1.192791199E0,1.293469071E-1,3.867426813E-1,-2.628170252E-1
1.197687501E0,1.415638477E-1,3.671955466E-1,-2.347180545E-1
1.202583804E0,1.653869003E-1,2.957264185E-1,-1.931804419E-1
1.207480106E0,2.014268786E-1,1.808871478E-1,-1.351499557E-1
1.212376460E0,2.429644912E-1,4.588989913E-2,-6.978929788E-2
1.217272762E0,2.851129472E-1,-8.910734206E-2,-6.872031838E-3
1.222169064E0,3.235963285E-1,-2.289913595E-1,4.993676394E-2
1.227065418E0,3.620797098E-1,-3.865899444E-1,9.697200358E-2
1.231961720E0,4.042281806E-1,-5.417451859E-1,1.409530044E-1
1.236858022E0,4.579827189E-1,-6.621584296E-1,1.953947693E-1
1.241754376E0,5.166240931E-1,-7.360709310E-1,2.607554197E-1
1.246650679E0,5.654918551E-1,-7.794411182E-1,3.206184506E-1
1.251546981E0,5.966450572E-1,-8.154810667E-1,3.670428395E-1
1.256443283E0,6.161921620E-1,-8.441908956E-1,3.951418102E-1
1.261339637E0,6.320741773E-1,-8.509102464E-1,4.036936760E-1
1.266235939E0,6.479562521E-1,-8.209787011E-1,3.914767504E-1
1.271132241E0,6.558972597E-1,-7.617265582E-1,3.578801453E-1
1.276028595E0,6.449019909E-1,-6.878139973E-1,3.010713458E-1
1.280924897E0,6.113054156E-1,-6.029062271E-1,2.265479714E-1
1.285821199E0,5.557183027E-1,-5.075377226E-1,1.458397806E-1
1.290735991E0,4.799732268E-1,-4.201865494E-1,6.948387623E-2
1.295613856E0,3.865135908E-1,-3.517716527E-1,-7.635590737E-4
1.300510158E0,2.826695740E-1,-2.992388010E-1,-6.306997687E-2
1.305406460E0,1.812689304E-1,-2.430408597E-1,-1.107160673E-1
1.310320939E0,8.964183182E-2,-1.721825749E-1,-1.345391124E-1
1.315199116E0,-1.664558798E-2,-5.001311749E-2,-1.394258887E-1
1.320113595E0,-1.522536725E-1,1.570640951E-1,-1.528645307E-1
1.324991772E0,-2.646495700E-1,3.873535097E-1,-1.669140160E-1
1.329888074E0,-3.306210935E-1,6.145886779E-1,-1.754658818E-1
1.334784376E0,-3.568875194E-1,8.118923903E-1,-1.760767251E-1
1.339698856E0,-3.471139669E-1,9.383377433E-1,-1.644706279E-1
1.344577033E0,-3.067980409E-1,9.731560349E-1,-1.479777545E-1
1.349473335E0,-2.383831441E-1,9.108496308E-1,-1.388150454E-1
1.354369637E0,-1.504211426E-1,7.880693078E-1,-1.284306347E-1
1.359265991E0,-5.573981255E-2,6.475744247E-1,-1.039967462E-1
1.364162293E0,3.649812192E-2,5.040253401E-1,-6.795676053E-2
1.369058595E0,1.024696305E-1,3.879643679E-1,-3.069507517E-2
1.373954897E0,1.250709742E-1,3.036674559E-1,-3.191677108E-2
1.378851251E0,1.018587798E-1,2.346417010E-1,-5.085303262E-2
1.383747554E0,8.231166750E-2,2.126512080E-1,-3.863608837E-2
1.388647189E0,1.055238619E-1,2.578538954E-1,-1.374406274E-3
1.393540210E0,1.360662282E-1,3.873535097E-1,4.566083103E-2
1.398436512E0,1.623326540E-1,5.437304378E-1,9.086353332E-2
1.403332814E0,2.044811249E-1,6.713975072E-1,1.360662282E-1
1.408229168E0,3.229855001E-1,6.439093947E-1,2.216611952E-1
1.413125470E0,5.606050491E-1,2.682383060E-1,3.713187873E-1
1.418021772E0,8.013552427E-1,-3.548259139E-1,5.301390886E-1
1.422918074E0,8.544989824E-1,-8.093726039E-1,6.474217176E-1
1.427814429E0,7.213342786E-1,-8.655705452E-1,7.036196589E-1
1.432710731E0,5.361711979E-1,-6.383354068E-1,7.140040994E-1
1.437607033E0,3.584146202E-1,-2.766374648E-1,6.920135617E-1
1.442503387E0,1.849340051E-1,1.136939451E-1,6.407024264E-1
1.447399689E0,2.367033064E-2,4.594334960E-1,5.710658431E-1
1.452295991E0,-1.076618284E-1,7.367581725E-1,4.928773940E-1
1.457192293E0,-2.060082406E-1,9.291750193E-1,4.256841838E-1
1.462088647E0,-2.713688910E-1,1.012250304E0,3.865899444E-1
1.466984949E0,-3.080197275E-1,9.792644978E-1,3.670428395E-1
1.471881251E0,-3.171824515E-1,8.705337048E-1,3.603235185E-1
1.476777606E0,-2.903051674E-1,7.404232621E-1,3.749838471E-1
1.481673908E0,-2.237228155E-1,6.133670211E-1,4.085804522E-1
1.486570210E0,-1.345391124E-1,5.040253401E-1,4.513397813E-1
1.491466512E0,-4.779879749E-2,4.233935177E-1,4.947099090E-1
1.496362866E0,2.794626169E-2,3.733040392E-1,5.307499170E-1
1.501259168E0,8.903098851E-2,3.458158970E-1,5.594597459E-1
1.506155470E0,1.275143623E-1,3.281013370E-1,5.747309327E-1
1.511051824E0,1.464506239E-1,3.097759187E-1,5.790068507E-1
1.515948126E0,1.488940120E-1,2.853420377E-1,5.771743059E-1
1.520862866E0,1.391204596E-1,2.554105222E-1,5.557946563E-1
1.525740783E0,1.293469071E-1,2.114295065E-1,5.386909246E-1
1.530637085E0,1.036913246E-1,1.979908645E-1,5.197546482E-1
1.535533387E0,7.131642103E-2,2.285332382E-1,4.745519757E-1
1.540429689E0,5.360184610E-2,2.792335451E-1,4.336251915E-1
1.545326043E0,4.443913698E-2,3.458158970E-1,4.043045342E-1
1.550222345E0,4.871506989E-2,3.867426813E-1,3.804814816E-1
1.555118647E0,7.742489129E-2,3.568111658E-1,3.627669215E-1
1.560033179E0,1.152974218E-1,2.725142241E-1,3.407764137E-1
1.564911304E0,1.403421611E-1,2.047101855E-1,3.328354061E-1
1.569807606E0,1.488940120E-1,1.961583197E-1,3.438306451E-1
1.574703908E0,1.598892659E-1,2.212030590E-1,3.694862425E-1
1.579618439E0,1.568350345E-1,2.835094929E-1,3.926984370E-1
1.584496564E0,1.354553849E-1,3.555894494E-1,3.988068998E-1
1.589411043E0,1.055238619E-1,4.178958833E-1,3.926984370E-1
1.594289220E0,6.887302548E-2,4.655419588E-1,3.731513321E-1
1.599185522E0,2.916795574E-2,4.844782352E-1,3.395547271E-1
1.604081824E0,-1.236965694E-2,4.826456904E-1,3.029038906E-1
1.608978126E0,-4.963133857E-2,4.795914590E-1,2.668638825E-1
1.613874481E0,-8.017370105E-2,4.753155112E-1,2.350998372E-1
1.618770783E0,-1.009425074E-1,4.759263694E-1,2.112767994E-1
1.623667085E0,-1.149920002E-1,4.899758697E-1,2.045574784E-1
1.628563439E0,-1.162136942E-1,5.052470565E-1,2.070008665E-1
1.633459741E0,-1.015533581E-1,5.040253401E-1,2.094442546E-1
1.638356043E0,-7.834116369E-2,4.863107800E-1,2.167744190E-1
1.643252397E0,-5.451811850E-2,4.521033168E-1,2.296022177E-1
1.648148699E0,-2.825168520E-2,4.154524803E-1,2.442625463E-1
1.653045001E0,-3.817795310E-3,3.794125021E-1,2.564795017E-1
1.657941304E0,2.000524849E-2,3.415399790E-1,2.680855989E-1
1.662837658E0,4.627167806E-2,3.030565977E-1,2.760266066E-1
1.667733960E0,6.704048812E-2,2.694599926E-1,2.815242410E-1
1.672630262E0,7.437065244E-2,2.407501787E-1,2.809133828E-1
1.677526564E0,6.887302548E-2,2.144837379E-1,2.760266066E-1
1.682422918E0,5.665608495E-2,2.004342526E-1,2.717506886E-1
1.687319220E0,4.627167806E-2,2.065427303E-1,2.705289721E-1
1.692215522E0,3.955236077E-2,2.273115367E-1,2.699181437E-1
1.697111876E0,2.916795574E-2,2.535779774E-1,2.680855989E-1
1.702008179E0,1.084253844E-2,2.841203213E-1,2.711398304E-1
1.706904481E0,-1.786728203E-2,3.158843815E-1,2.760266066E-1
1.711800783E0,-5.146388337E-2,3.421508074E-1,2.821350694E-1
1.716697137E0,-8.200624585E-2,3.574219942E-1,2.906869352E-1
1.721593439E0,-1.070509851E-1,3.757474124E-1,3.053472638E-1
1.726489741E0,-1.296523362E-1,4.087331593E-1,3.279486299E-1
1.731404272E0,-1.491994411E-1,4.527141750E-1,3.578801453E-1
1.736282397E0,-1.608055383E-1,4.973060191E-1,3.939201236E-1
1.741178699E0,-1.626380831E-1,5.400653481E-1,4.311818182E-1
1.746075054E0,-1.577513069E-1,5.718293786E-1,4.647783935E-1
1.750971356E0,-1.516428292E-1,5.938199162E-1,4.867689013E-1
1.755867658E0,-1.504211426E-1,6.213080287E-1,4.989858568E-1
1.760763960E0,-1.400367320E-1,6.329141259E-1,5.026509166E-1
1.765660314E0,-1.211004704E-1,5.895439386E-1,4.995967150E-1
1.770556616E0,-1.033858955E-1,4.979168773E-1,4.916556776E-1
1.775452918E0,-9.055810422E-2,3.977379203E-1,4.818821251E-1
1.780349272E0,-7.834116369E-2,3.164952397E-1,4.727194309E-1
1.785245574E0,-6.795676053E-2,2.511345744E-1,4.580591023E-1
1.790160054E0,-5.940489471E-2,2.047101855E-1,4.385119677E-1
1.795038179E0,-5.818320066E-2,1.845522225E-1,4.110238552E-1
1.799934533E0,-6.184828654E-2,1.943257898E-1,3.823140264E-1
1.804830835E0,-6.978929788E-2,2.212030590E-1,3.493282795E-1
1.809745314E0,-7.528692484E-2,2.511345744E-1,3.242835402E-1
1.814623491E0,-7.895200700E-2,2.731250823E-1,3.096232116E-1
1.819537970E0,-8.200624585E-2,2.780118585E-1,2.961845696E-1
1.824416095E0,-8.078455180E-2,2.786227167E-1,2.778591514E-1
1.829312397E0,-7.711946964E-2,2.792335451E-1,2.577011883E-1
1.834208751E0,-7.162184268E-2,2.828986347E-1,2.369323820E-1
1.839105054E0,-6.123743951E-2,2.938938737E-1,2.179961205E-1
1.844001356E0,-5.329642445E-2,3.109976053E-1,2.057791650E-1
1.848897710E0,-4.230117425E-2,3.305447102E-1,2.021140903E-1
1.853794012E0,-3.436015919E-2,3.580328524E-1,2.021140903E-1
1.858690314E0,-2.031067200E-2,3.824667335E-1,2.094442546E-1
1.863586668E0,-1.374406274E-3,3.781908154E-1,2.228828967E-1
1.868482970E0,1.511846948E-2,3.311555684E-1,2.308239043E-1
1.873379272E0,2.550287358E-2,2.633515298E-1,2.332672924E-1
1.878275626E0,3.344388679E-2,2.022667974E-1,2.289913595E-1
1.883171929E0,3.710897267E-2,1.582857966E-1,2.247154415E-1
1.888068231E0,3.710897267E-2,1.259108931E-1,2.192178071E-1
1.892964533E0,3.771981969E-2,1.100288630E-1,2.057791650E-1
1.897860887E0,3.710897267E-2,1.185807213E-1,1.874537468E-1
1.902757189E0,3.283303976E-2,1.460688561E-1,1.679066420E-1
1.907653491E0,1.695101149E-2,1.900498569E-1,1.514137685E-1
1.912549845E0,-6.872031838E-3,2.456369549E-1,1.440072358E-1
1.917446147E0,-3.313846514E-2,2.938938737E-1,1.385096163E-1
1.922342449E0,-5.696150661E-2,3.256579340E-1,1.348445266E-1
1.927238804E0,-7.406523079E-2,3.555894494E-1,1.299577504E-1
1.932135106E0,-8.261708915E-2,3.934620023E-1,1.299577504E-1
1.937031408E0,-8.689302206E-2,4.295019805E-1,1.262926757E-1
1.941927762E0,-8.689302206E-2,4.502707720E-1,1.195733473E-1
1.946824064E0,-8.017370105E-2,4.514924884E-1,1.104106456E-1
1.951720366E0,-6.612421572E-2,4.466057122E-1,1.000262350E-1
1.956616668E0,-5.085303262E-2,4.514924884E-1,8.658760041E-2
1.961513022E0,-3.008422814E-2,4.734829962E-1,7.437065244E-2
1.966409324E0,-1.374406274E-3,4.948626459E-1,6.337540597E-2
1.971305626E0,2.489202656E-2,5.003602505E-1,4.871506989E-2
1.976201981E0,4.810422286E-2,4.966951907E-1,3.710897267E-2
1.981098283E0,7.375980914E-2,4.997494221E-1,2.916795574E-2
1.985994585E0,1.043021679E-1,5.119663477E-1,2.733541466E-2
1.990890939E0,1.403421611E-1,5.229616165E-1,3.222219273E-2
1.995787241E0,1.745496094E-1,5.241833329E-1,3.955236077E-2
2.000683543E0,2.093679011E-1,5.247941613E-1,5.360184610E-2
2.005579845E0,2.417428046E-1,5.327351689E-1,7.314895838E-2
2.010476199E0,2.686200738E-1,5.467846394E-1,9.941539168E-2
2.015372501E0,2.918322682E-1,5.602232814E-1,1.324011385E-1
2.020268804E0,3.113794029E-1,5.626666546E-1,1.672957987E-1
2.025165158E0,3.229855001E-1,5.498389006E-1,1.996707022E-1
2.030061460E0,3.211529553E-1,5.296809077E-1,2.241045833E-1
2.034957762E0,3.052709103E-1,5.101338029E-1,2.375432253E-1
2.039854116E0,2.802261710E-1,4.997494221E-1,2.405974567E-1
2.044750418E0,2.564031482E-1,5.015819669E-1,2.320456058E-1
2.049646720E0,2.319692522E-1,5.150206089E-1,2.118876427E-1
2.054543074E0,1.983726472E-1,5.302917957E-1,1.807344258E-1
2.059457554E0,1.507265568E-1,5.535039902E-1,1.464506239E-1
2.064335679E0,9.452861547E-2,5.962632895E-1,1.207950488E-1
2.069232033E0,4.443913698E-2,6.304707527E-1,1.104106456E-1
2.074128335E0,-1.985253533E-3,6.365792155E-1,1.140757278E-1
2.079027918E0,-3.802524135E-2,6.090910435E-1,1.336228400E-1
2.083920991E0,-6.245913357E-2,5.657209158E-1,1.697391868E-1
2.088820626E0,-7.467607409E-2,5.247941613E-1,2.112767994E-1
2.093713595E0,-7.773031294E-2,4.808131456E-1,2.522035539E-1
2.098613335E0,-8.261708915E-2,4.240043461E-1,2.900761068E-1
2.103506251E0,-9.361234307E-2,3.555894494E-1,3.273377717E-1
2.108402554E0,-1.113269106E-1,2.883962691E-1,3.627669215E-1
2.113298908E0,-1.400367320E-1,2.218139172E-1,3.939201236E-1
2.118195210E0,-1.809635013E-1,1.558424085E-1,4.189648628E-1
2.123091564E0,-2.310529798E-1,9.964445978E-2,4.379011393E-1
2.127987866E0,-2.841966748E-1,6.299362332E-2,4.562265575E-1
2.132884168E0,-3.330644667E-1,5.077667907E-2,4.757736623E-1
2.137780470E0,-3.672719002E-1,5.199837312E-2,4.928773940E-1
2.142676824E0,-3.935383558E-1,5.566345528E-2,5.057051778E-1
2.147573126E0,-4.198047817E-1,7.276718318E-2,5.221980214E-1
2.152469481E0,-4.442386627E-1,1.143047959E-1,5.435777307E-1
2.157365783E0,-4.607315361E-1,1.778329015E-1,5.661790371E-1
2.162262085E0,-4.637857676E-1,2.438044101E-1,5.942780375E-1
2.167158439E0,-4.546230733E-1,2.975589633E-1,6.187118888E-1
2.172054741E0,-4.350759685E-1,3.311555684E-1,6.394807100E-1
2.176951043E0,-4.069769979E-1,3.598653972E-1,6.584169865E-1
2.181847397E0,-3.733803928E-1,3.977379203E-1,6.797966361E-1
2.186743699E0,-3.397837877E-1,4.435514808E-1,7.042305470E-1
2.191640001E0,-3.000787199E-1,4.704287350E-1,7.262210250E-1
2.196536356E0,-2.585411072E-1,4.685961902E-1,7.408813834E-1
2.201432658E0,-2.298312783E-1,4.539358616E-1,7.378271222E-1
2.206329012E0,-2.212794125E-1,4.545467198E-1,7.225559354E-1
2.211225314E0,-2.377723008E-1,4.973060191E-1,7.017871737E-1
2.216121616E0,-2.750339806E-1,5.877113938E-1,6.761315465E-1
2.221017970E0,-3.239017725E-1,7.178218961E-1,6.431457996E-1
2.225914272E0,-3.758237660E-1,8.564842343E-1,6.064949632E-1
2.230828751E0,-4.362976551E-1,9.731560349E-1,5.704549551E-1
2.235706929E0,-5.071559548E-1,1.067226529E0,5.411342978E-1
2.240603231E0,-5.829010010E-1,1.177178979E0,5.228089094E-1
2.245499533E0,-6.397097707E-1,1.289574862E0,5.325824618E-1
2.250395887E0,-6.464291215E-1,1.319506407E0,5.735092163E-1
2.255292189E0,-6.000047326E-1,1.195504427E0,6.382590532E-1
2.260206720E0,-5.639647245E-1,9.670475721E-1,7.121715546E-1
2.265084845E0,-5.535803437E-1,7.227086425E-1,8.007444143E-1
2.269999376E0,-5.267030597E-1,5.070796013E-1,9.051992893E-1
2.274877501E0,-4.821111858E-1,3.421508074E-1,1.004767418E0
2.279773804E0,-4.289674759E-1,2.334200144E-1,1.078069091E0
2.284670106E0,-3.813214004E-1,1.912715435E-1,1.131212711E0
2.289584637E0,-3.422271907E-1,2.114295065E-1,1.173361182E0
2.294462762E0,-3.104631305E-1,2.633515298E-1,1.197184324E0
2.299359116E0,-2.756448388E-1,3.195494711E-1,1.200238466E0
2.304255418E0,-2.334963679E-1,3.830775917E-1,1.183134794E0
2.309169949E0,-1.827960461E-1,4.618768692E-1,1.145873070E0
2.314048074E0,-1.272089481E-1,5.541148186E-1,1.081123233E0
2.318944376E0,-7.040014863E-2,6.396334171E-1,9.852202535E-1
2.323840731E0,-2.275406010E-2,6.872795224E-1,8.563315272E-1
2.328737033E0,9.009997360E-3,6.933879852E-1,6.975111961E-1
2.333633387E0,2.550287358E-2,6.689541340E-1,5.197546482E-1
2.338627241E0,4.260659590E-2,6.225296855E-1,3.273377717E-1
2.343425939E0,6.276455522E-2,5.590016246E-1,1.317902952E-1
2.348322345E0,1.000262350E-1,4.716504514E-1,-4.413371533E-2
2.353218647E0,1.598892659E-1,3.684172630E-1,-1.663031727E-1
2.358115001E0,2.258607745E-1,2.719033957E-1,-2.328855246E-1
2.363011304E0,2.673983872E-1,1.979908645E-1,-2.732014358E-1
2.367907606E0,2.631224692E-1,1.625617296E-1,-3.147390485E-1
2.372803960E0,2.209739983E-1,1.747786701E-1,-3.623851240E-1
2.377700262E0,1.659977436E-1,2.321983129E-1,-4.075878263E-1
2.382596616E0,1.140757278E-1,3.177169263E-1,-4.369085133E-1
2.387590470E0,7.742489129E-2,4.056789279E-1,-4.466820657E-1
2.392389220E0,5.238015205E-2,4.734829962E-1,-4.301891923E-1
2.397285574E0,4.627167806E-2,5.107446909E-1,-3.880407214E-1
2.402181876E0,6.093201414E-2,5.131880641E-1,-3.220692277E-1
2.407078231E0,8.597674966E-2,4.838673770E-1,-2.475458533E-1
2.411974533E0,1.104106456E-1,4.264477491E-1,-1.754658818E-1
2.416870887E0,1.256818175E-1,3.574219942E-1,-1.119377613E-1
2.421767189E0,1.330119967E-1,3.000023663E-1,-6.551336497E-2
2.426663543E0,1.366770715E-1,2.670166194E-1,-3.558185324E-2
2.431559845E0,1.421747059E-1,2.486911863E-1,-2.275406010E-2
2.436456199E0,1.488940120E-1,2.413610220E-1,-2.275406010E-2
2.441352501E0,1.568350345E-1,2.493020445E-1,-3.252761811E-2
2.446248804E0,1.580567211E-1,2.719033957E-1,-5.207473040E-2
2.451145158E0,1.513374150E-1,3.085542321E-1,-8.139539510E-2
2.456041460E0,1.403421611E-1,3.519243896E-1,-1.174353883E-1
2.460937814E0,1.342336833E-1,3.952945471E-1,-1.553079188E-1
2.465834116E0,1.360662282E-1,4.441623092E-1,-1.907370538E-1
2.470730470E0,1.409530044E-1,5.003602505E-1,-2.200577259E-1
2.475626772E0,1.391204596E-1,5.431195498E-1,-2.438807636E-1
2.480523126E0,1.256818175E-1,5.718293786E-1,-2.658712566E-1
2.485419429E0,1.024696305E-1,5.901548266E-1,-2.848075330E-1
2.490315731E0,7.498150319E-2,5.962632895E-1,-3.006895781E-1
2.495212085E0,4.993676394E-2,5.974849463E-1,-3.104631305E-1
2.500108387E0,3.161134571E-2,6.023717523E-1,-3.129065037E-1
2.505004741E0,1.389677543E-2,6.145886779E-1,-3.129065037E-1
2.509901043E0,-4.428642802E-3,6.371900439E-1,-3.086305857E-1
2.514797397E0,-3.191677108E-2,6.640673280E-1,-3.019112647E-1
2.519711876E0,-6.551336497E-2,6.946097016E-1,-2.988570333E-1
2.524590054E0,-9.116895497E-2,7.141568065E-1,-3.025220931E-1
2.529486356E0,-1.039967462E-1,7.111025453E-1,-3.067980409E-1
2.534382710E0,-1.021642014E-1,7.019398808E-1,-2.915268540E-1
2.539297189E0,-9.116895497E-2,6.982747912E-1,-2.463241518E-1
2.544175366E0,-7.773031294E-2,6.927771568E-1,-1.919587553E-1
2.549071668E0,-6.673506647E-2,6.848361492E-1,-1.455343664E-1
2.553968022E0,-6.368082762E-2,6.756734252E-1,-8.444963396E-2
2.558864324E0,-7.528692484E-2,6.622347832E-1,-2.153236605E-2
2.563760626E0,-8.506047726E-2,6.585696936E-1,-1.298050396E-2
2.568656981E0,-6.856760383E-2,6.762842536E-1,-4.291202128E-2
2.573553283E0,-4.596625641E-2,6.713975072E-1,-4.902049154E-2
2.578449637E0,-3.558185324E-2,6.133670211E-1,-4.230117425E-2
2.583345939E0,-3.008422814E-2,5.199073553E-1,-3.374931216E-2
2.588339793E0,-2.031067200E-2,4.252260625E-1,-2.702999115E-2
2.593138543E0,-8.704573847E-3,3.494809866E-1,-2.764083818E-2
2.598034949E0,4.123218823E-3,3.036674559E-1,-3.436015919E-2
2.602931251E0,9.620844387E-3,2.871745825E-1,-5.573981255E-2
2.607827606E0,6.566607859E-3,2.969481349E-1,-9.116895497E-2
2.612723908E0,-7.635590737E-4,3.409291208E-1,-1.204896197E-1
2.617620262E0,-2.641914412E-2,4.026246965E-1,-1.424801201E-1
2.622516564E0,-7.467607409E-2,4.722612798E-1,-1.864611208E-1
2.627412918E0,-1.278197914E-1,5.822138190E-1,-2.286095917E-1
2.632309220E0,-1.815743446E-1,7.202652693E-1,-2.463241518E-1
2.637205574E0,-2.279987335E-1,8.363262415E-1,-2.487675399E-1
2.642101876E0,-2.615953386E-1,8.998543620E-1,-2.377723008E-1
2.646998231E0,-2.866400778E-1,8.937458992E-1,-1.992889196E-1
2.651894533E0,-3.263451457E-1,8.161683083E-1,-1.485885978E-1
2.656790887E0,-3.727695346E-1,7.080483437E-1,-9.910997003E-2
2.661687189E0,-4.167505503E-1,6.066476703E-1,-5.268557742E-2
2.666583543E0,-4.534013867E-1,5.327351689E-1,-1.114796288E-2
2.671479845E0,-4.741701782E-1,5.083012581E-1,2.305948362E-2
2.676376199E0,-4.686725736E-1,5.431195498E-1,5.971032009E-2
2.681272501E0,-4.442386627E-1,6.176429391E-1,9.391776472E-2
2.686168856E0,-4.216373265E-1,7.056049109E-1,1.134648770E-1
2.691083387E0,-4.075878263E-1,7.972320318E-1,1.201841980E-1
2.695961512E0,-3.972034156E-1,8.766421676E-1,1.177408099E-1
2.700857814E0,-3.788780272E-1,9.255099297E-1,1.091889441E-1
2.705754168E0,-3.379512429E-1,9.395594597E-1,1.024696305E-1
2.710650470E0,-2.719797492E-1,9.206231833E-1,9.758284688E-2
2.715546824E0,-1.962346882E-1,8.827506304E-1,9.330692142E-2
2.720443179E0,-1.211004704E-1,8.430455923E-1,9.147437662E-2
2.725339481E0,-5.024218559E-2,8.173899651E-1,9.819369763E-2
2.730253491E0,1.572931744E-2,8.143357635E-1,1.049130186E-1
2.735132137E0,6.459710002E-2,8.222767711E-1,1.165191159E-1
2.740028491E0,9.208522737E-2,8.234984875E-1,1.330119967E-1
2.744924793E0,1.024696305E-1,8.021187782E-1,1.532463133E-1
2.749821147E0,1.097997949E-1,7.422557473E-1,1.654632539E-1
2.754717449E0,1.195733473E-1,6.286382079E-1,1.599656194E-1
2.759631981E0,1.250709742E-1,4.747046828E-1,1.372879148E-1
2.764510106E0,1.195733473E-1,3.067216873E-1,1.110214889E-1
2.769424637E0,9.941539168E-2,1.533990204E-1,9.086353332E-2
2.774302762E0,6.520794332E-2,2.817532979E-2,7.070557028E-2
2.779199116E0,-1.374406274E-3,-6.406260282E-2,-2.458660305E-2
2.784095470E0,-5.024218559E-2,-8.422056586E-2,-9.239064902E-2
2.789009949E0,-7.956285775E-2,-7.750124484E-2,-1.033858955E-1
2.793888126E0,-1.149920002E-1,-7.627955079E-2,-9.361234307E-2
2.798784429E0,-1.589729935E-1,-7.017108053E-2,-6.856760383E-2
2.803680783E0,-1.895153672E-1,-3.413109109E-2,-6.261184346E-3
2.808577085E0,-2.005106062E-1,3.550549597E-2,8.108997345E-2
2.813473439E0,-2.231119573E-1,1.222458109E-1,1.415638477E-1
2.818369741E0,-2.640387416E-1,2.309766263E-1,1.709608734E-1
2.823266095E0,-2.982461751E-1,3.500918448E-1,1.795127392E-1
2.828162397E0,-3.116848171E-1,4.618768692E-1,1.807344258E-1
2.833058751E0,-3.013004065E-1,5.510605574E-1,1.868429035E-1
2.837955106E0,-2.774773538E-1,5.999283791E-1,1.917296797E-1
2.842851408E0,-2.408265322E-1,6.255839467E-1,1.819561273E-1
2.847747762E0,-1.968455315E-1,6.408551335E-1,1.446180940E-1
2.852644064E0,-1.534753740E-1,6.396334171E-1,9.391776472E-2
2.857540418E0,-1.039967462E-1,6.323032975E-1,3.527642787E-2
2.862436720E0,-4.657710344E-2,6.243622303E-1,-2.275406010E-2
2.867333074E0,6.566607859E-3,5.925981998E-1,-5.635065958E-2
2.872229429E0,5.787777901E-2,5.309026241E-1,-1.107160673E-1
2.877125731E0,1.165191159E-1,4.692070484E-1,-1.882936656E-1
2.882022085E0,2.002051920E-1,3.946836889E-1,-2.927485406E-1
2.886918387E0,3.052709103E-1,3.189386129E-1,-4.173613787E-1
2.891814741E0,4.121691883E-1,2.346417010E-1,-5.328115225E-1
2.896711095E0,5.050179958E-1,1.326302141E-1,-6.482616663E-1
2.901607397E0,5.716003180E-1,2.267770469E-2,-7.655443549E-1
2.906503751E0,6.070294380E-1,-7.933378965E-2,-8.864920735E-1
2.911400054E0,6.045860648E-1,-1.703500301E-1,-1.023932695E0
2.916296408E0,5.508314967E-1,-2.509818673E-1,-1.174811959E0
2.921192710E0,4.634803534E-1,-3.041255772E-1,-1.288429618E0
2.926089064E0,3.669664860E-1,-3.450523317E-1,-1.348292589E0
2.930985418E0,2.753393948E-1,-3.963635266E-1,-1.372115612E0
2.935881720E0,2.020377368E-1,-4.433987439E-1,-1.360509515E0
2.940778074E0,1.550024897E-1,-4.623350203E-1,-1.321415305E0
2.945674376E0,1.330119967E-1,-4.513397813E-1,-1.269493341E0
2.950570731E0,1.360662282E-1,-4.030828476E-1,-1.204743505E0
2.955467085E0,1.550024897E-1,-3.371113241E-1,-1.130831003E0
2.960363387E0,1.879882365E-1,-2.625879645E-1,-1.042868972E0
2.965259741E0,2.283041626E-1,-1.984490007E-1,-9.530744553E-1
2.970156043E0,2.637332976E-1,-1.520246118E-1,-8.687775135E-1
2.975052397E0,2.845021188E-1,-1.184280142E-1,-7.960866690E-1
2.979948751E0,2.832804024E-1,-9.277242422E-2,-7.423321605E-1
2.984845054E0,2.606790662E-1,-6.345175952E-2,-7.062921524E-1
2.989741408E0,2.240282297E-1,-3.229855001E-2,-6.812474132E-1
2.994637710E0,1.812689304E-1,-4.199574701E-3,-6.641436815E-1
2.999534064E0,1.372879148E-1,7.406522986E-3,-6.543701291E-1
3.004430418E0,9.330692142E-2,-3.588727675E-3,-6.476507783E-1
3.009330314E0,5.176930502E-2,-2.680092305E-2,-6.390989423E-1
3.014223074E0,1.389677543E-2,-5.062396824E-2,-6.201626658E-1
3.019119376E0,-2.275406010E-2,-8.299887180E-2,-5.908420086E-1
3.024015731E0,-5.268557742E-2,-1.214822456E-1,-5.517477989E-1
3.028912085E0,-7.467607409E-2,-1.495812237E-1,-5.053234100E-1
3.033808387E0,-9.361234307E-2,-1.544679999E-1,-4.534013867E-1
3.038704741E0,-1.107160673E-1,-1.349208951E-1,-3.923166394E-1
3.043601095E0,-1.327065676E-1,-8.666395396E-2,-3.226800561E-1
3.048497397E0,-1.601946950E-1,-2.313583903E-2,-2.432699203E-1
3.053393751E0,-1.901262105E-1,4.222481698E-2,-1.528645307E-1
3.058290054E0,-2.267770469E-1,1.118614078E-1,-5.146388337E-2
3.063186408E0,-2.683146596E-1,1.924932450E-1,7.253811508E-2
3.068082762E0,-3.104631305E-1,2.853420377E-1,2.186069638E-1
3.072979064E0,-3.465031087E-1,3.751365840E-1,3.737621605E-1
3.077875418E0,-3.703261614E-1,4.319453537E-1,5.325824618E-1
3.082771772E0,-3.794888556E-1,4.521033168E-1,6.944569945E-1
3.087668074E0,-3.721587062E-1,4.453839958E-1,8.581640720E-1
3.092564429E0,-3.520007432E-1,4.105657041E-1,1.011486650E0
3.097460731E0,-3.324536085E-1,3.513135314E-1,1.137321234E0
3.102357085E0,-3.202366829E-1,2.780118585E-1,1.231391668E0
3.107253439E0,-3.116848171E-1,2.059318870E-1,1.291865587E0
3.112149741E0,-3.061871827E-1,1.430146098E-1,1.320575476E0
3.117046095E0,-3.043546379E-1,8.926005661E-2,1.322407961E0
3.121942449E0,-3.061871827E-1,4.772244394E-2,1.301028252E0
3.126838751E0,-3.147390485E-1,2.939702384E-2,1.257047296E0
3.131735106E0,-3.342861533E-1,4.222481698E-2,1.196573377E0
3.136631460E0,-3.617742956E-1,7.032378763E-2,1.122050047E0
3.141527762E0,-3.874298632E-1,9.048175067E-2,1.037753105E0
3.146424116E0,-4.075878263E-1,9.720107168E-2,9.522345066E-1
3.151320418E0,-4.179722369E-1,9.720107168E-2,8.813762665E-1
3.156216772E0,-4.130854607E-1,7.826480269E-2,8.221240640E-1
3.161113126E0,-3.904841244E-1,4.405735806E-2,7.702020407E-1
3.166009429E0,-3.550549746E-1,4.963133950E-3,7.195017338E-1
3.170905783E0,-3.196258247E-1,-3.046600707E-2,6.675797105E-1
3.175802137E0,-2.884726226E-1,-6.833853573E-2,6.132143140E-1
3.180716616E0,-2.634278834E-1,-1.013242900E-1,5.521295667E-1
3.185594793E0,-2.493783981E-1,-1.184280142E-1,4.886014462E-1
3.190491147E0,-2.567085624E-1,-1.129303873E-1,4.336251915E-1
3.195387449E0,-2.756448388E-1,-8.360971510E-2,3.963635266E-1
3.200301981E0,-2.994678617E-1,-4.329380020E-2,3.682645559E-1
3.205180158E0,-3.208475113E-1,2.519744914E-3,3.432198167E-1
3.210094637E0,-3.361186981E-1,4.711159319E-2,3.096232116E-1
3.214972814E0,-3.446705639E-1,8.009734750E-2,2.650313675E-1
3.219869168E0,-3.495573401E-1,9.903360903E-2,2.021140903E-1
3.224765470E0,-3.471139669E-1,1.069746241E-1,7.864658535E-2
3.229680001E0,-3.098522723E-1,1.460688561E-1,-1.565296054E-1
3.234558179E0,-2.670929730E-1,1.760003716E-1,-3.025220931E-1
3.239472710E0,-2.328855246E-1,1.503447890E-1,-3.672719002E-1
3.244350835E0,-1.864611208E-1,9.109259397E-2,-4.271349311E-1
3.249265366E0,-1.394258887E-1,4.963133950E-3,-4.637857676E-1
3.254143491E0,-9.972081333E-2,-9.643751383E-2,-4.668400288E-1
3.259039845E0,-6.306997687E-2,-1.898971349E-1,-4.393518865E-1
3.263936199E0,-2.458660305E-2,-2.693072855E-1,-3.965925872E-1
3.268832501E0,1.084253844E-2,-3.346679509E-1,-3.550549746E-1
3.273728856E0,4.077405483E-2,-3.817031682E-1,-3.239017725E-1
3.278625210E0,6.520794332E-2,-4.024719894E-1,-2.915268540E-1
3.283521512E0,7.681404054E-2,-3.963635266E-1,-2.499892414E-1
3.288437501E0,7.437065244E-2,-3.664320111E-1,-1.980672181E-1
3.293314220E0,5.665608495E-2,-3.175642192E-1,-1.375933439E-1
3.298210522E0,3.466558084E-2,-2.467059344E-1,-6.978929788E-2
3.303106876E0,1.328592747E-2,-1.569113880E-1,-3.817795310E-3
3.308003231E0,-6.261184346E-3,-5.917582661E-2,5.360184610E-2
3.312899533E0,-2.641914412E-2,2.145601064E-2,1.024696305E-1
3.317795887E0,-4.413371533E-2,7.887565345E-2,1.464506239E-1
3.322692241E0,-4.963133857E-2,1.198024154E-1,1.843995154E-1
3.327588543E0,-4.413371533E-2,1.503447890E-1,2.186069638E-1
3.332484897E0,-3.436015919E-2,1.601183414E-1,2.442625463E-1
3.337381251E0,-2.825168520E-2,1.503447890E-1,2.625879645E-1
3.342277554E0,-2.947338112E-2,1.369061470E-1,2.741940618E-1
3.347173908E0,-3.436015919E-2,1.338519007E-1,2.876327038E-1
3.352070262E0,-4.169032723E-2,1.424037665E-1,3.029038906E-1
3.356966564E0,-5.085303262E-2,1.625617296E-1,3.163425326E-1
3.361862918E0,-6.429167092E-2,1.912715435E-1,3.279486299E-1
3.366759272E0,-8.444963396E-2,2.193705291E-1,3.407764137E-1
3.371655626E0,-1.046075895E-1,2.413610220E-1,3.609343767E-1
3.376551929E0,-1.235438585E-1,2.499128878E-1,3.847574294E-1
3.381448283E0,-1.369825006E-1,2.480803430E-1,4.061370790E-1
3.386344637E0,-1.473668963E-1,2.309766263E-1,4.201865494E-1
3.391240939E0,-1.528645307E-1,2.059318870E-1,4.293492734E-1
3.396137293E0,-1.553079188E-1,1.839413792E-1,4.348468781E-1
3.401033647E0,-1.510319859E-1,1.662268043E-1,4.403445125E-1
3.405930001E0,-1.394258887E-1,1.582857966E-1,4.446204603E-1
3.410826304E0,-1.241547018E-1,1.607291847E-1,4.452312887E-1
3.415722658E0,-1.119377613E-1,1.741678268E-1,4.421770573E-1
3.420619012E0,-1.107160673E-1,1.888281554E-1,4.342360497E-1
3.425515314E0,-1.192679256E-1,1.937149316E-1,4.238516390E-1
3.430411668E0,-1.296523362E-1,1.906607002E-1,4.134672284E-1
3.435308022E0,-1.394258887E-1,1.723352820E-1,4.061370790E-1
3.440222501E0,-1.485885978E-1,1.411820799E-1,4.000285864E-1
3.445100679E0,-1.565296054E-1,1.057529300E-1,3.994177580E-1
3.450015210E0,-1.650814712E-1,6.726955622E-2,3.994177580E-1
3.454893335E0,-1.754658818E-1,2.817532979E-2,4.000285864E-1
3.459807866E0,-1.827960461E-1,-1.336228382E-2,4.043045342E-1
3.464686043E0,-1.834068894E-1,-3.962871432E-2,4.122455418E-1
3.469582397E0,-1.766875684E-1,-4.268295318E-2,4.183540046E-1
3.474478699E0,-1.699682474E-1,-3.657447919E-2,4.201865494E-1
3.479375054E0,-1.687465608E-1,-2.069245093E-2,4.110238552E-1
3.484271408E0,-1.742441803E-1,8.017370477E-3,3.988068998E-1
3.489167710E0,-1.827960461E-1,4.100312293E-2,3.890333474E-1
3.494064064E0,-1.876828223E-1,6.971294433E-2,3.847574294E-1
3.498960418E0,-1.858502775E-1,9.659022093E-2,3.859791160E-1
3.503856720E0,-1.791309565E-1,1.155264899E-1,3.908658922E-1
3.508753074E0,-1.724116355E-1,1.253000498E-1,3.945309818E-1
3.513649429E0,-1.650814712E-1,1.295759678E-1,3.939201236E-1
3.518545783E0,-1.583621502E-1,1.314085126E-1,3.890333474E-1
3.523442085E0,-1.522536725E-1,1.332410574E-1,3.841465712E-1
3.528338439E0,-1.491994411E-1,1.332410574E-1,3.762055635E-1
3.533234793E0,-1.577513069E-1,1.344627589E-1,3.639886081E-1
3.538228647E0,-1.785201132E-1,1.399603784E-1,3.468848765E-1
3.543027397E0,-1.998997629E-1,1.387386769E-1,3.279486299E-1
3.547923804E0,-2.139492482E-1,1.314085126E-1,3.114557564E-1
3.552820158E0,-2.176143378E-1,1.185807213E-1,2.943520248E-1
3.557716460E0,-2.200577259E-1,1.075854748E-1,2.790808380E-1
3.562612814E0,-2.225011140E-1,1.149156392E-1,2.693072855E-1
3.567509168E0,-2.334963679E-1,1.393495351E-1,2.760266066E-1
3.572405470E0,-2.548760176E-1,1.601183414E-1,2.967953980E-1
3.577301824E0,-2.817533016E-1,1.698918939E-1,3.261160851E-1
3.582198179E0,-3.031329513E-1,1.796654463E-1,3.591018319E-1
3.587094533E0,-3.171824515E-1,2.034884989E-1,3.939201236E-1
3.591990835E0,-3.318427801E-1,2.364742458E-1,4.336251915E-1
3.596887189E0,-3.465031087E-1,2.706816792E-1,4.751628041E-1
3.601783543E0,-3.587200642E-1,2.902288139E-1,5.118136406E-1
3.606679897E0,-3.642176688E-1,2.969481349E-1,5.399126410E-1
3.611576199E0,-3.574983478E-1,2.926721871E-1,5.472427607E-1
3.616472554E0,-3.336753249E-1,2.871745825E-1,5.435777307E-1
3.621368908E0,-2.958027720E-1,2.835094929E-1,5.283065438E-1
3.626265210E0,-2.506000996E-1,2.804552615E-1,5.050943494E-1
3.631161564E0,-2.115058601E-1,2.792335451E-1,4.751628041E-1
3.636057918E0,-1.791309565E-1,2.786227167E-1,4.409553707E-1
3.640954272E0,-1.534753740E-1,2.749576271E-1,4.000285864E-1
3.645850574E0,-1.302631795E-1,2.694599926E-1,3.493282795E-1
3.650746929E0,-1.131594554E-1,2.737359405E-1,2.870218456E-1
3.655643283E0,-1.143811494E-1,2.908396423E-1,2.210503519E-1
3.660539637E0,-1.320957243E-1,3.091650605E-1,1.660740972E-1
3.665435939E0,-1.491994411E-1,3.048891425E-1,1.360662282E-1
3.670332293E0,-1.498102844E-1,2.633515298E-1,1.207950488E-1
3.675228647E0,-1.327065676E-1,2.040993422E-1,1.189625040E-1
3.680124949E0,-1.088835225E-1,1.436254680E-1,1.207950488E-1
3.685021304E0,-8.322793990E-2,1.020878479E-1,1.256818175E-1
3.689935835E0,-5.879404768E-2,8.987089992E-2,1.342336833E-1
3.694814012E0,-3.191677108E-2,9.964445978E-2,1.433963925E-1
3.699728491E0,-4.428642802E-3,1.240783483E-1,1.421747059E-1
3.704606668E0,1.695101149E-2,1.588966399E-1,1.250709742E-1
3.709521199E0,3.222219273E-2,2.022667974E-1,9.513945878E-2
3.714399324E0,4.749337584E-2,2.468586415E-1,6.154286116E-2
3.719313856E0,6.887302548E-2,2.798444033E-1,2.794626169E-2
3.724192033E0,9.819369763E-2,2.975589633E-1,-9.926267900E-3
3.729088387E0,1.342336833E-1,3.018349111E-1,-5.512896553E-2
3.733984689E0,1.684411317E-1,3.036674559E-1,-9.972081333E-2
3.738884533E0,2.002051920E-1,3.177169263E-1,-1.302631795E-1
3.743777397E0,2.356343269E-1,3.403182924E-1,-1.540862173E-1
3.748673751E0,2.747285664E-1,3.714714944E-1,-1.858502775E-1
3.753570054E0,3.187095523E-1,4.142307937E-1,-2.206685692E-1
3.758466408E0,3.571929336E-1,4.502707720E-1,-2.622061968E-1
3.763362762E0,3.755183518E-1,4.716504514E-1,-3.239017725E-1
3.768259116E0,3.724641204E-1,4.973060191E-1,-4.027010500E-1
3.773155418E0,3.474193811E-1,5.522822738E-1,-4.784461260E-1
3.778051772E0,2.997733057E-1,6.353574991E-1,-5.358657837E-1
3.782948126E0,2.380777150E-1,7.202652693E-1,-5.670189857E-1
3.787847866E0,1.708845198E-1,7.941777706E-1,-5.627430081E-1
3.792740783E0,1.097997949E-1,8.460997939E-1,-5.248705149E-1
3.797637137E0,6.704048812E-2,8.662577868E-1,-4.668400288E-1
3.802533491E0,4.627167806E-2,8.412130475E-1,-3.941491842E-1
3.807429845E0,4.443913698E-2,7.599703670E-1,-3.092414141E-1
3.812326147E0,5.115845799E-2,6.439093947E-1,-2.255553454E-1
3.817222501E0,5.665608495E-2,5.339568853E-1,-1.394258887E-1
3.822118856E0,5.787777901E-2,4.521033168E-1,-5.390727147E-2
3.827015158E0,5.726693198E-2,4.044572413E-1,2.489202656E-2
3.831911512E0,5.421269313E-2,3.904077411E-1,9.025268257E-2
3.836807866E0,4.566083103E-2,3.983487785E-1,1.372879148E-1
3.841704220E0,4.138490185E-2,3.971270621E-1,1.581330895E-1
3.846600522E0,5.360184610E-2,3.818559051E-1,1.556897014E-1
3.851496876E0,8.536590636E-2,3.604762256E-1,1.366770715E-1
3.856393231E0,1.281252056E-1,3.335989714E-1,1.073564067E-1
3.861289585E0,1.794363856E-1,2.951155901E-1,6.826218218E-2
3.866185887E0,2.392994165E-1,2.419718653E-1,5.344913341E-3
3.871082241E0,3.046600819E-1,1.729461253E-1,-9.605573118E-2
3.875978595E0,3.755183518E-1,9.720107168E-2,-2.273878902E-1
3.880874949E0,4.469874799E-1,3.917058185E-2,-3.770454824E-1
3.885771251E0,5.105155706E-1,1.908897655E-3,-5.260922313E-1
3.890685783E0,5.593833923E-1,-2.008160390E-2,-6.659762263E-1
3.895563960E0,5.887040496E-1,-4.512634128E-2,-7.936432958E-1
3.900460314E0,6.015318632E-1,-8.177717775E-2,-9.054283500E-1
3.905356616E0,5.954233408E-1,-1.288124174E-1,-9.988879561E-1
3.910252970E0,5.673243999E-1,-1.880646050E-1,-1.068524599E0
3.915149324E0,5.239542127E-1,-2.583120465E-1,-1.110062122E0
3.920063804E0,4.799732268E-1,-3.255052269E-1,-1.124111652E0
3.924941981E0,4.414898455E-1,-3.762055635E-1,-1.099066973E0
3.929856512E0,4.072824121E-1,-3.780381083E-1,-1.007439852E0
3.934734689E0,3.687990308E-1,-3.297811747E-1,-8.461761475E-1
3.939631043E0,3.419217467E-1,-2.790808380E-1,-6.665870547E-1
3.944527345E0,3.266505599E-1,-2.167744190E-1,-4.979932308E-1
3.949423699E0,3.107685447E-1,-1.343100369E-1,-3.434488773E-1
3.954320054E0,2.912214398E-1,-4.756972939E-2,-2.121167034E-1
3.959234585E0,2.661767006E-1,3.672719002E-2,-1.076618284E-1
3.964112710E0,2.276933193E-1,1.253000498E-1,-3.069507517E-2
3.969009064E0,1.745496094E-1,2.126512080E-1,1.450762246E-2
3.973905418E0,1.201841980E-1,2.877854109E-1,3.161134571E-2
3.978801772E0,7.559234649E-2,3.415399790E-1,2.000524849E-2
3.983698074E0,4.260659590E-2,3.726931810E-1,-1.725643501E-2
3.988594429E0,2.183778957E-2,3.690280914E-1,-6.917845458E-2
3.993490783E0,1.084253844E-2,3.305447102E-1,-1.217113137E-1
3.998387085E0,4.123218823E-3,2.682383060E-1,-1.724116355E-1
4.003283439E0,4.734066315E-3,1.876064688E-1,-2.133384049E-1
4.008242033E0,8.399149403E-3,1.088071689E-1,-2.426590770E-1
4.013076147E0,1.450762246E-2,2.573194169E-2,-2.579302490E-1
4.017972501E0,2.611372061E-2,-4.207210615E-2,-2.615953386E-1
4.022868804E0,3.955236077E-2,-8.483141661E-2,-2.579302490E-1
4.027765158E0,5.421269313E-2,-1.117086932E-1,-2.499892414E-1
4.032661512E0,6.826218218E-2,-1.196497083E-1,-2.383831441E-1
4.037557866E0,7.925742865E-2,-1.147629321E-1,-2.255553454E-1
4.042454168E0,9.147437662E-2,-1.019351333E-1,-2.163926363E-1
4.047350522E0,1.097997949E-1,-8.727480471E-2,-2.066190839E-1
4.052246876E0,1.336228400E-1,-7.689040154E-2,-1.944021434E-1
4.057143231E0,1.586675793E-1,-7.505785674E-2,-1.791309565E-1
4.062039533E0,1.837123185E-1,-7.750124484E-2,-1.650814712E-1
4.066935887E0,2.038702667E-1,-7.811209559E-2,-1.528645307E-1
4.071832241E0,2.185306102E-1,-7.383616269E-2,-1.443126649E-1
4.076728595E0,2.307475507E-1,-6.956022978E-2,-1.388150454E-1
4.081624897E0,2.423536479E-1,-6.956022978E-2,-1.369825006E-1
4.086521251E0,2.509055138E-1,-7.200361788E-2,-1.437018216E-1
4.091435783E0,2.551814318E-1,-8.238802105E-2,-1.601946950E-1
4.096313960E0,2.551814318E-1,-9.460496902E-2,-1.870719790E-1
4.101210262E0,2.551814318E-1,-1.025459841E-1,-2.218902707E-1
4.106106616E0,2.557922900E-1,-1.098761484E-1,-2.591519356E-1
4.111002970E0,2.557922900E-1,-1.172063202E-1,-2.988570333E-1
4.115899324E0,2.509055138E-1,-1.282015741E-1,-3.385621011E-1
4.120813856E0,2.423536479E-1,-1.422510594E-1,-3.776563108E-1
4.125691981E0,2.276933193E-1,-1.569113880E-1,-4.118637741E-1
4.130606512E0,2.087570578E-1,-1.660740972E-1,-4.417952895E-1
4.135484689E0,1.947075576E-1,-1.654632539E-1,-4.595098495E-1
4.140399220E0,1.885990947E-1,-1.599656194E-1,-4.650074840E-1
4.145277345E0,1.885990947E-1,-1.532463133E-1,-4.637857676E-1
4.150173699E0,1.904316396E-1,-1.477486789E-1,-4.613423944E-1
4.155070054E0,1.928750277E-1,-1.422510594E-1,-4.588989913E-1
4.159984585E0,1.989834905E-1,-1.343100369E-1,-4.534013867E-1
4.164862710E0,1.983726472E-1,-1.214822456E-1,-4.411844313E-1
4.169777241E0,1.849340051E-1,-1.049893722E-1,-4.179722369E-1
4.174655418E0,1.617218107E-1,-7.933378965E-2,-3.825430870E-1
4.179551772E0,1.427855492E-1,-5.489989743E-2,-3.403946459E-1
4.184448074E0,1.348445266E-1,-3.474193811E-2,-3.067980409E-1
4.189362345E0,1.360662282E-1,-1.580567285E-2,-2.793098986E-1
4.194240783E0,1.458397806E-1,-6.032116711E-3,-2.591519356E-1
4.199137085E0,1.556133330E-1,-2.130329795E-2,-2.457133085E-1
4.204033439E0,1.641651988E-1,-6.039752439E-2,-2.371614426E-1
4.208929793E0,1.666085869E-1,-1.049893722E-1,-2.304421216E-1
4.213826147E0,1.653869003E-1,-1.489703804E-1,-2.267770469E-1
4.218722449E0,1.690519750E-1,-2.021140903E-1,-2.316638231E-1
4.223618804E0,1.800472289E-1,-2.680855989E-1,-2.438807636E-1
4.228515158E0,1.965401024E-1,-3.352787793E-1,-2.573194206E-1
4.233411512E0,2.215848416E-1,-3.981960714E-1,-2.701472044E-1
4.238405262E0,2.484621257E-1,-4.623350203E-1,-2.786990702E-1
4.243204116E0,2.600682080E-1,-5.167004466E-1,-2.689255178E-1
4.248100522E0,2.435753495E-1,-5.405234694E-1,-2.536543310E-1
4.252996876E0,2.191414535E-1,-5.955760479E-1,-2.670929730E-1
4.257893231E0,2.044811249E-1,-6.297835112E-1,-2.878617644E-1
4.262789533E0,2.118112892E-1,-6.169557571E-1,-3.086305857E-1
4.267685887E0,2.325800955E-1,-5.796940327E-1,-3.306210935E-1
4.272582241E0,2.502946556E-1,-5.258631110E-1,-3.507790267E-1
4.277478595E0,2.612899244E-1,-4.623350203E-1,-3.623851240E-1
4.282374897E0,2.649549842E-1,-3.994177580E-1,-3.703261614E-1
4.287368647E0,2.637332976E-1,-3.511608243E-1,-3.746020794E-1
4.292167554E0,2.539597452E-1,-3.187859058E-1,-3.746020794E-1
4.297063960E0,2.319692522E-1,-3.035147190E-1,-3.758237660E-1
4.301960262E0,1.995943487E-1,-3.041255772E-1,-3.807105422E-1
4.306856616E0,1.623326540E-1,-3.151208162E-1,-3.843756318E-1
4.311752970E0,1.232384369E-1,-3.444415033E-1,-3.886515796E-1
4.316649324E0,8.903098851E-2,-3.835357130E-1,-3.953709006E-1
4.321545626E0,5.848862603E-2,-4.360685945E-1,-4.088095427E-1
4.326441981E0,2.428117767E-2,-4.824929833E-1,-4.246915579E-1
4.331338335E0,-1.374406274E-3,-4.788278937E-1,-4.277457893E-1
4.336234689E0,-1.114796288E-2,-4.556156993E-1,-4.234698713E-1
4.341131043E0,-5.039489828E-3,-4.421770573E-1,-4.210264683E-1
4.346027345E0,5.955760833E-3,-4.519506097E-1,-4.271349311E-1
4.350923699E0,1.267508045E-2,-4.562265575E-1,-4.344651103E-1
4.355820054E0,2.061609551E-2,-4.385119677E-1,-4.387410581E-1
4.360734585E0,2.061609551E-2,-4.342360497E-1,-4.442386627E-1
4.365612710E0,1.450762246E-2,-4.440096021E-1,-4.509579837E-1
4.370527241E0,9.620844387E-3,-4.446204603E-1,-4.564556181E-1
4.375405418E0,8.399149403E-3,-4.354577363E-1,-4.601207078E-1
4.380301772E0,8.399149403E-3,-4.128564000E-1,-4.601207078E-1
4.385198074E0,6.566607859E-3,-3.859791160E-1,-4.601207078E-1
4.390112658E0,-6.872031838E-3,-3.542150557E-1,-4.527905285E-1
4.394990783E0,-2.336490713E-2,-3.102340400E-1,-4.356867969E-1
4.399887137E0,-3.619270027E-2,-2.570903301E-1,-4.118637741E-1
4.404783439E0,-5.024218559E-2,-2.082225531E-1,-3.898732662E-1
4.409679793E0,-6.551336497E-2,-1.740151197E-1,-3.758237660E-1
4.414576147E0,-7.895200700E-2,-1.563005447E-1,-3.684936166E-1
4.419472501E0,-8.506047726E-2,-1.563005447E-1,-3.660502136E-1
4.424368804E0,-8.322793990E-2,-1.709608734E-1,-3.684936166E-1
4.429283335E0,-7.528692484E-2,-1.917296797E-1,-3.782671690E-1
4.434161512E0,-5.879404768E-2,-2.161635756E-1,-3.917058110E-1
4.439061147E0,-3.436015919E-2,-2.460950911E-1,-4.057552814E-1
4.443954220E0,-6.261184346E-3,-2.809133828E-1,-4.240806997E-1
4.448850522E0,3.955236077E-2,-3.468848765E-1,-4.558447599E-1
4.453746876E0,8.719844371E-2,-4.012503028E-1,-4.863871336E-1
4.458643231E0,1.238492802E-1,-4.091913104E-1,-4.918847680E-1
4.463539533E0,1.605001241E-1,-3.933092654E-1,-4.821111858E-1
4.468435887E0,1.898207814E-1,-3.627669215E-1,-4.631749392E-1
4.473332241E0,2.105895877E-1,-3.255052269E-1,-4.314108789E-1
4.478228595E0,2.252499312E-1,-2.851893008E-1,-3.910949528E-1
4.483124949E0,2.258607745E-1,-2.192178071E-1,-3.428380191E-1
4.488021251E0,2.209739983E-1,-1.440836042E-1,-2.982461751E-1
4.492917606E0,2.154763639E-1,-7.994463295E-2,-2.732014358E-1
4.497813960E0,2.099787444E-1,-2.374668792E-2,-2.603736520E-1
4.502710314E0,2.026485801E-1,8.017370477E-3,-2.567085624E-1
4.507606616E0,1.904316396E-1,1.412584260E-2,-2.603736520E-1
4.512502970E0,1.745496094E-1,1.298050396E-3,-2.719797492E-1
4.517399324E0,1.574458778E-1,-3.107685409E-2,-2.872509360E-1
4.522295679E0,1.397313178E-1,-7.261446863E-2,-3.006895781E-1
4.527191981E0,1.238492802E-1,-1.220930964E-1,-3.110739589E-1
4.532088335E0,1.183516532E-1,-1.978381574E-1,-3.355078697E-1
4.536984689E0,1.458397806E-1,-3.206184506E-1,-3.843756318E-1
4.541881043E0,1.550024897E-1,-3.798706532E-1,-4.033119082E-1
4.546777397E0,1.513374150E-1,-4.134672284E-1,-3.941491842E-1
4.551673699E0,1.440072358E-1,-4.488963783E-1,-3.715478480E-1
4.556570054E0,1.281252056E-1,-4.653892517E-1,-3.391729295E-1
4.561466408E0,1.018587798E-1,-4.629458785E-1,-3.037438095E-1
4.566362710E0,7.009471953E-2,-4.543940127E-1,-2.615953386E-1
4.571259064E0,5.604523420E-2,-4.574482441E-1,-2.298312783E-1
4.576155418E0,5.726693198E-2,-4.684434831E-1,-2.194468826E-1
4.581051772E0,6.704048812E-2,-4.684434831E-1,-2.255553454E-1
4.585948126E0,8.353336155E-2,-4.501180649E-1,-2.365505993E-1
4.590844429E0,1.000262350E-1,-4.128564000E-1,-2.579302490E-1
4.595740783E0,1.165191159E-1,-3.676536977E-1,-2.848075330E-1
4.600655314E0,1.311794519E-1,-3.206184506E-1,-3.129065037E-1
4.605533491E0,1.659977436E-1,-3.126774430E-1,-3.471139669E-1
4.610429793E0,2.234173864E-1,-3.645994663E-1,-3.996468186E-1
4.615326147E0,2.606790662E-1,-3.884224892E-1,-4.210264683E-1
4.620222501E0,2.893888950E-1,-3.939201236E-1,-4.136963189E-1
4.625118856E0,3.071034551E-1,-3.853682578E-1,-3.935383558E-1
4.630033335E0,3.132119179E-1,-3.786489367E-1,-3.703261614E-1
4.634911512E0,3.119902313E-1,-3.762055635E-1,-3.526115716E-1
4.639826043E0,3.064926267E-1,-3.743730187E-1,-3.422271907E-1
4.644704220E0,3.022166789E-1,-3.719296157E-1,-3.385621011E-1
4.649618699E0,2.985515893E-1,-3.676536977E-1,-3.428380191E-1
4.654496876E0,2.961082160E-1,-3.645994663E-1,-3.507790267E-1
4.659411408E0,2.967190444E-1,-3.664320111E-1,-3.611634374E-1
4.664289585E0,3.022166789E-1,-3.621560633E-1,-3.684936166E-1
4.669185887E0,3.132119179E-1,-3.444415033E-1,-3.697153032E-1
4.674082241E0,3.278722763E-1,-3.248943985E-1,-3.636068404E-1
4.678978595E0,3.407000601E-1,-3.145099878E-1,-3.562766612E-1
4.683874949E0,3.486410677E-1,-3.096232116E-1,-3.465031087E-1
4.688774793E0,3.541387022E-1,-3.047364354E-1,-3.318427801E-1
4.693667606E0,3.516952991E-1,-3.029038906E-1,-3.184041381E-1
4.698563960E0,3.437542915E-1,-3.047364354E-1,-3.006895781E-1
4.703460314E0,3.321481943E-1,-3.084014952E-1,-2.689255178E-1
4.708356616E0,3.174878657E-1,-3.279486299E-1,-2.212794125E-1
4.713252970E0,3.028275371E-1,-3.694862425E-1,-1.730224788E-1
4.718149324E0,2.863346636E-1,-4.232407808E-1,-1.253764033E-1
4.723045679E0,2.741177082E-1,-4.562265575E-1,-8.322793990E-2
4.727942033E0,2.588465214E-1,-4.965424538E-1,-5.024218559E-2
4.732838335E0,2.289150059E-1,-5.790832043E-1,-3.436015919E-2
4.737734689E0,2.069245130E-1,-6.358919740E-1,-3.558185324E-2
4.742631043E0,1.977618039E-1,-6.682668924E-1,-5.635065958E-2
4.747527397E0,2.063136548E-1,-7.232431769E-1,-9.422318637E-2
4.752423699E0,2.032594234E-1,-7.690566778E-1,-1.320957243E-1
4.757320054E0,1.934858710E-1,-7.788302302E-1,-1.638597846E-1
4.762216408E0,1.824906170E-1,-7.647807598E-1,-1.931804419E-1
4.767112762E0,1.727170646E-1,-7.110261917E-1,-2.218902707E-1
4.772009064E0,1.629435122E-1,-6.267293096E-1,-2.548760176E-1
4.776905418E0,1.342336833E-1,-5.589252710E-1,-2.915268540E-1
4.781801772E0,9.819369763E-2,-4.940990806E-1,-3.306210935E-1
4.786698126E0,6.337540597E-2,-4.330143631E-1,-3.727695346E-1
4.791594429E0,3.222219273E-2,-3.749838471E-1,-4.161396921E-1
4.796490783E0,5.955760833E-3,-3.163425326E-1,-4.552339315E-1
4.801387137E0,-1.481304597E-2,-2.558686435E-1,-4.888305068E-1
4.806283491E0,-2.580829710E-2,-1.996707022E-1,-5.150969625E-1
4.811179793E0,-3.130592033E-2,-1.642415524E-1,-5.376983285E-1
4.816076147E0,-3.619270027E-2,-1.550788432E-1,-5.566345453E-1
4.820972501E0,-3.680354729E-2,-1.532463133E-1,-5.670189857E-1
4.825868856E0,-3.374931216E-2,-1.544679999E-1,-5.651864409E-1
4.830765158E0,-3.130592033E-2,-1.648524106E-1,-5.480827093E-1
4.835661512E0,-2.764083818E-2,-1.770693511E-1,-5.248705149E-1
4.840557866E0,-1.847812906E-2,-1.758476496E-1,-5.028799772E-1
4.845454220E0,-1.527118147E-4,-1.617981642E-1,-4.827220440E-1
4.850368751E0,2.428117767E-2,-1.477486789E-1,-4.631749392E-1
4.855246876E0,4.688252881E-2,-1.416402012E-1,-4.479037523E-1
4.860143231E0,6.459710002E-2,-1.587439328E-1,-4.350759685E-1
4.865039585E0,7.681404054E-2,-1.978381574E-1,-4.185830951E-1
4.869954116E0,8.597674966E-2,-2.467059344E-1,-3.965925872E-1
4.874832241E0,9.391776472E-2,-2.980171144E-1,-3.764346242E-1
4.879728595E0,1.110214889E-1,-3.462740481E-1,-3.526115716E-1
4.884624949E0,1.452289373E-1,-3.847574294E-1,-3.330644667E-1
4.889521251E0,1.885990947E-1,-4.116346836E-1,-3.220692277E-1
4.894417606E0,2.276933193E-1,-4.385119677E-1,-3.086305857E-1
4.899313960E0,2.527380586E-1,-4.708868861E-1,-2.878617644E-1
4.904210314E0,2.667875290E-1,-5.087594390E-1,-2.634278834E-1
4.909106616E0,2.802261710E-1,-5.546492934E-1,-2.420482337E-1
4.914002970E0,3.028275371E-1,-6.010736823E-1,-2.316638231E-1
4.918899324E0,3.321481943E-1,-6.517740488E-1,-2.243336588E-1
4.923795679E0,3.614688516E-1,-7.189671993E-1,-2.182251811E-1
4.928691981E0,3.865135908E-1,-8.075400591E-1,-2.163926363E-1
4.933588335E0,4.042281806E-1,-9.040539265E-1,-2.218902707E-1
4.938587449E0,4.121691883E-1,-9.871291518E-1,-2.365505993E-1
4.943581772E0,4.256078303E-1,-1.073258638E0,-2.579302490E-1
4.948576043E0,4.323271513E-1,-1.086086392E0,-2.646495700E-1
4.953570314E0,4.396573007E-1,-1.086697221E0,-2.817533016E-1
4.958564585E0,4.451549351E-1,-1.073869467E0,-3.055763543E-1
4.963558804E0,4.475983381E-1,-1.040883780E0,-3.324536085E-1
4.968553074E0,4.463766217E-1,-9.840749502E-1,-3.544441164E-1
4.973547345E0,4.396573007E-1,-9.003888369E-1,-3.672719002E-1
4.978541616E0,4.249969721E-1,-7.959339619E-1,-3.678827584E-1
4.983535835E0,3.999522328E-1,-6.847597957E-1,-3.605526090E-1
4.988530106E0,3.614688516E-1,-5.674771070E-1,-3.483356535E-1
4.993524376E0,3.144336343E-1,-4.250733256E-1,-3.361186981E-1
4.998518647E0,2.533488870E-1,-2.631988227E-1,-3.293993771E-1
5.003512866E0,1.794363856E-1,-1.135412306E-1,-3.196258247E-1
5.008507137E0,1.012479365E-1,-2.367033157E-3,-3.006895781E-1
5.013501408E0,2.550287358E-2,6.726955622E-2,-2.829749882E-1
5.018495679E0,-4.657710344E-2,1.124722511E-1,-2.664821148E-1
5.023489897E0,-1.162136942E-1,1.417929232E-1,-2.524326444E-1
5.028484168E0,-1.858502775E-1,1.631725729E-1,-2.426590770E-1
5.033478439E0,-2.560977042E-1,1.668376625E-1,-2.334963679E-1
5.038472658E0,-3.251234591E-1,1.497339308E-1,-2.316638231E-1
5.043466929E0,-3.892624080E-1,1.088071689E-1,-2.347180545E-1
5.048461199E0,-4.466820657E-1,4.772244394E-2,-2.396048307E-1
5.053455470E0,-4.937172830E-1,-2.252499200E-2,-2.506000996E-1
5.058449689E0,-5.260922313E-1,-9.093988687E-2,-2.652604282E-1
5.063443960E0,-5.493044257E-1,-1.532463133E-1,-2.774773538E-1
5.068457033E0,-5.645755529E-1,-2.106659412E-1,-2.896943092E-1
5.073432501E0,-5.688515306E-1,-2.686964273E-1,-3.000787199E-1
5.078426720E0,-5.609105229E-1,-3.108448982E-1,-3.049654961E-1
5.083420991E0,-5.413633585E-1,-3.279486299E-1,-3.037438095E-1
5.088415262E0,-5.065450668E-1,-3.346679509E-1,-2.958027720E-1
5.093409533E0,-4.582881629E-1,-3.487174213E-1,-2.848075330E-1
5.098403751E0,-3.978142738E-1,-3.865899444E-1,-2.670929730E-1
5.103398022E0,-3.135173619E-1,-4.513397813E-1,-2.432699203E-1
5.108410835E0,-1.974563748E-1,-5.148679018E-1,-2.139492482E-1
5.113386564E0,-4.963133857E-2,-5.484644771E-1,-1.815743446E-1
5.118380783E0,1.183516532E-1,-5.515187383E-1,-1.467560530E-1
5.123375054E0,2.954973578E-1,-5.411342978E-1,-1.119377613E-1
5.128388126E0,4.701996744E-1,-5.313607454E-1,-8.383878320E-2
5.133363595E0,6.326850653E-1,-5.240305662E-1,-6.490252167E-2
5.138376356E0,7.769213319E-1,-5.148679018E-1,-4.718795046E-2
5.143352085E0,8.990908265E-1,-5.014292598E-1,-3.191677108E-2
5.148346356E0,9.974372387E-1,-4.818821251E-1,-2.031067200E-2
5.153340574E0,1.074404001E0,-4.550048411E-1,-9.315420873E-3
5.158334845E0,1.128769398E0,-4.214082658E-1,4.581354442E-4
5.163329116E0,1.167863607E0,-3.890333474E-1,9.620844387E-3
5.168323387E0,1.195351720E0,-3.713187873E-1,1.267508045E-2
5.173317606E0,1.213066339E0,-3.755947053E-1,1.084253844E-2
5.178311876E0,1.220396519E0,-3.988068998E-1,5.955760833E-3
5.183301720E0,1.213677168E0,-4.354577363E-1,-1.985253533E-3
5.188198074E0,1.196573377E0,-4.873797596E-1,-7.482878864E-3
5.193094376E0,1.170307040E0,-5.447993875E-1,-1.420219894E-2
5.197990731E0,1.138542891E0,-5.986303091E-1,-2.092151903E-2
5.202887085E0,1.102502942E0,-6.536065936E-1,-3.374931216E-2
5.207783439E0,1.060354471E0,-7.140804529E-1,-5.329642445E-2
5.212679741E0,1.011486650E0,-7.684458494E-1,-7.773031294E-2
5.217576095E0,9.583429694E-1,-8.050966859E-1,-1.070509851E-1
5.222472449E0,9.027559161E-1,-8.167027831E-1,-1.418692768E-1
5.227368751E0,8.508338928E-1,-8.002098799E-1,-1.986780763E-1
5.232265106E0,8.135721684E-1,-7.470661998E-1,-3.092414141E-1
5.237161460E0,7.720345855E-1,-6.988092661E-1,-4.112529159E-1
5.242057814E0,7.201125622E-1,-6.578825116E-1,-4.882196784E-1
5.246954116E0,6.613948941E-1,-6.041279435E-1,-5.413633585E-1
5.251850470E0,6.003101468E-1,-5.325824618E-1,-5.719057322E-1
5.256746824E0,5.318952799E-1,-4.537831545E-1,-5.847335458E-1
5.261643179E0,4.555393457E-1,-3.725404739E-1,-5.829010010E-1
5.266539481E0,3.773508966E-1,-2.790808380E-1,-5.676298141E-1
5.271435835E0,2.973299026E-1,-1.721825749E-1,-5.438067913E-1
5.276332189E0,2.160872221E-1,-5.734328553E-2,-5.163186193E-1
5.281228491E0,1.354553849E-1,5.993938819E-2,-4.894413650E-1
5.286124845E0,5.787777901E-2,1.698918939E-1,-4.637857676E-1
5.291021199E0,-1.603474095E-2,2.664057612E-1,-4.430169761E-1
5.295917554E0,-8.383878320E-2,3.452050686E-1,-4.240806997E-1
5.300813856E0,-1.479777545E-1,4.020138383E-1,-4.112529159E-1
5.305710210E0,-2.041756958E-1,4.362213016E-1,-4.063661397E-1
5.310624741E0,-2.542651594E-1,4.435514808E-1,-4.069769979E-1
5.315502918E0,-2.976353168E-1,4.331670702E-1,-4.100312293E-1
5.320417449E0,-3.330644667E-1,4.172850251E-1,-4.136963189E-1
5.325295574E0,-3.648285270E-1,4.026246965E-1,-4.155288339E-1
5.330210106E0,-3.929274976E-1,3.904077411E-1,-4.136963189E-1
5.335088283E0,-4.185830951E-1,3.690280914E-1,-4.069769979E-1
5.340002762E0,-4.399627447E-1,3.268796504E-1,-3.984251320E-1
5.344880939E0,-4.515688419E-1,2.474694997E-1,-4.075878263E-1
5.349795470E0,-4.503471553E-1,1.222458109E-1,-4.375193417E-1
5.354673595E0,-4.454603493E-1,-4.810422193E-3,-4.674508572E-1
5.359588126E0,-4.350759685E-1,-1.159846261E-1,-4.955498278E-1
5.364466304E0,-4.222481549E-1,-2.204395086E-1,-5.328115225E-1
5.369380835E0,-4.063661397E-1,-3.200076222E-1,-5.755708218E-1
5.374258960E0,-3.874298632E-1,-4.012503028E-1,-6.103891134E-1
5.379155314E0,-3.654393852E-1,-4.721085727E-1,-6.415423155E-1
5.384051668E0,-3.391729295E-1,-5.276956558E-1,-6.604785919E-1
5.388951460E0,-3.067980409E-1,-5.711421967E-1,-6.726955175E-1
5.393844324E0,-2.756448388E-1,-6.175665855E-1,-6.873558760E-1
5.398740679E0,-2.438807636E-1,-6.664343476E-1,-7.007945180E-1
5.403637033E0,-2.072299272E-1,-6.951441765E-1,-7.111788988E-1
5.408533335E0,-1.693574041E-1,-7.104153633E-1,-7.203416228E-1
5.413429689E0,-1.290414780E-1,-7.293516397E-1,-7.307260633E-1
5.418326043E0,-8.750387281E-2,-7.476770282E-1,-7.417212725E-1
5.423222397E0,-4.779879749E-2,-7.623373866E-1,-7.527165413E-1
5.428118699E0,-9.926267900E-3,-7.812736630E-1,-7.655443549E-1
5.433015054E0,2.733541466E-2,-8.038749695E-1,-7.789829373E-1
5.437911408E0,6.215370819E-2,-8.356390595E-1,-7.918107510E-1
5.442807710E0,9.330692142E-2,-8.845068216E-1,-8.070819378E-1
5.447704064E0,1.226275861E-1,-9.315420985E-1,-8.162446618E-1
5.452600418E0,1.482831687E-1,-9.694145918E-1,-8.156337738E-1
5.457496772E0,1.708845198E-1,-1.006676316E0,-8.070819378E-1
5.462393074E0,1.885990947E-1,-1.035996914E0,-7.893673778E-1
5.467289429E0,2.020377368E-1,-1.061652541E0,-7.631009221E-1
5.472185783E0,2.105895877E-1,-1.082421303E0,-7.282826304E-1
5.477082137E0,2.154763639E-1,-1.093416572E0,-6.855233312E-1
5.481978439E0,2.185306102E-1,-1.108687758E0,-6.470399499E-1
5.486874793E0,2.154763639E-1,-1.123958945E0,-6.012263894E-1
5.491771147E0,2.057028115E-1,-1.112963676E0,-5.486935377E-1
5.496667449E0,1.947075576E-1,-1.070815206E0,-4.900522232E-1
5.501563804E0,1.812689304E-1,-1.006065488E0,-4.289674759E-1
5.506460158E0,1.672194302E-1,-9.156600237E-1,-3.666610718E-1
5.511356512E0,1.537808031E-1,-8.063184023E-1,-3.025220931E-1
5.516252814E0,1.427855492E-1,-6.835380793E-1,-2.377723008E-1
5.521149168E0,1.336228400E-1,-5.472427607E-1,-1.742441803E-1
5.526045522E0,1.262926757E-1,-3.841465712E-1,-1.052184403E-1
5.530941876E0,1.214058921E-1,-2.106659412E-1,-3.436015919E-2
5.535838179E0,1.262926757E-1,-6.772769243E-2,3.100049868E-2
5.540734533E0,1.421747059E-1,2.634278871E-2,8.536590636E-2
5.545630887E0,1.641651988E-1,7.704310864E-2,1.293469071E-1
5.550527189E0,1.940967143E-1,8.864920586E-2,1.605764776E-1
5.555423543E0,2.289150059E-1,7.337802649E-2,1.807344258E-1
5.560338074E0,2.673983872E-1,4.283566400E-2,1.935622245E-1
5.565216199E0,3.058817685E-1,9.239064530E-3,2.021140903E-1
5.570112554E0,3.419217467E-1,-1.641651988E-2,2.033357769E-1
5.575008908E0,3.736858070E-1,-2.557922900E-2,2.015032321E-1
5.579905262E0,3.999522328E-1,-1.580567285E-2,1.984490007E-1
5.584801564E0,4.182776511E-1,1.107160654E-2,1.935622245E-1
5.589697918E0,4.311054647E-1,5.016583204E-2,1.911188364E-1
5.594594272E0,4.384356141E-1,9.109259397E-2,1.929513812E-1
5.599490626E0,4.396573007E-1,1.307976693E-1,1.960056126E-1
5.604386929E0,4.378247857E-1,1.662268043E-1,2.002815455E-1
5.609301720E0,4.347705245E-1,1.979908645E-1,2.027249336E-1
5.614179637E0,4.262186885E-1,2.236464471E-1,2.008923888E-1
5.619075939E0,4.152234197E-1,2.456369549E-1,1.960056126E-1
5.623972293E0,4.017847776E-1,2.664057612E-1,1.880646050E-1
5.628872085E0,3.871244490E-1,2.816769481E-1,1.758476496E-1
5.633764949E0,3.687990308E-1,2.920613587E-1,1.599656194E-1
5.638754897E0,3.492519259E-1,2.963372767E-1,1.446180940E-1
5.643749220E0,3.046600819E-1,2.841203213E-1,1.207950488E-1
5.648743491E0,2.808370292E-1,2.676274478E-1,1.171299592E-1
5.653737762E0,2.557922900E-1,2.444152534E-1,1.207950488E-1
5.658732033E0,2.301367074E-1,2.163162827E-1,1.293469071E-1
5.663726251E0,2.075353563E-1,1.876064688E-1,1.421747059E-1
5.668720522E0,1.849340051E-1,1.588966399E-1,1.587439328E-1
5.673714793E0,1.641651988E-1,1.338519007E-1,1.721825749E-1
5.678709064E0,1.446180940E-1,1.112505570E-1,1.831778288E-1
5.683706720E0,1.281252056E-1,9.414683282E-2,1.911188364E-1
5.688704376E0,1.110214889E-1,8.376242965E-2,1.978381574E-1
5.693698647E0,9.636115283E-2,8.070819080E-2,2.015032321E-1
5.698692866E0,8.536590636E-2,8.437328041E-2,2.033357769E-1
5.703687137E0,7.681404054E-2,9.292513877E-2,2.051683217E-1
5.708681408E0,7.131642103E-2,1.057529300E-1,2.063900232E-1
5.713675626E0,6.704048812E-2,1.204132661E-1,2.070008665E-1
5.718669897E0,6.765133142E-2,1.350736022E-1,2.057791650E-1
5.723664168E0,7.009471953E-2,1.503447890E-1,2.063900232E-1
5.728658439E0,7.620319724E-2,1.650051177E-1,2.057791650E-1
5.733652658E0,8.170082420E-2,1.760003716E-1,2.051683217E-1
5.738646929E0,8.903098851E-2,1.882173121E-1,2.051683217E-1
5.743641199E0,9.513945878E-2,1.967691779E-1,2.057791650E-1
5.748635418E0,1.006370857E-1,2.028776407E-1,2.082225531E-1
5.753629689E0,1.055238619E-1,2.095969617E-1,2.106659412E-1
5.758623960E0,1.073564067E-1,2.169271260E-1,2.131093442E-1
5.763618231E0,1.079672500E-1,2.242573053E-1,2.155527323E-1
5.768612449E0,1.055238619E-1,2.340308577E-1,2.198286504E-1
5.773606720E0,1.018587798E-1,2.474694997E-1,2.247154415E-1
5.778600991E0,9.452861547E-2,2.627406716E-1,2.283805162E-1
5.783595210E0,8.414421231E-2,2.822877765E-1,2.332672924E-1
5.788589481E0,7.253811508E-2,3.042782843E-1,2.350998372E-1
5.793583751E0,5.726693198E-2,3.287121952E-1,2.350998372E-1
5.798577970E0,4.016320780E-2,3.519243896E-1,2.320456058E-1
5.803572241E0,2.061609551E-2,3.739148676E-1,2.271588296E-1
5.808566512E0,-7.635590737E-4,3.916294575E-1,2.198286504E-1
5.813560731E0,-2.275406010E-2,4.014030099E-1,2.112767994E-1
5.818555001E0,-4.596625641E-2,4.020138383E-1,2.008923888E-1
5.823549272E0,-7.040014863E-2,3.904077411E-1,1.886754483E-1
5.828562085E0,-9.544488788E-2,3.665847182E-1,1.764585078E-1
5.833537762E0,-1.192679256E-1,3.268796504E-1,1.666849405E-1
5.838550314E0,-1.430909634E-1,2.767901719E-1,1.563005447E-1
5.843526304E0,-1.656923145E-1,2.181488276E-1,1.470614821E-1
5.848539116E0,-1.864611208E-1,1.546207070E-1,1.385096163E-1
5.853514793E0,-2.041756958E-1,9.231429547E-2,1.311794519E-1
5.858509064E0,-2.194468826E-1,3.855973482E-2,1.262926757E-1
5.863503283E0,-2.304421216E-1,-3.588727675E-3,1.201841980E-1
5.868497554E0,-2.353289127E-1,-2.985516004E-2,1.159082651E-1
5.873491824E0,-2.347180545E-1,-3.901786730E-2,1.110214889E-1
5.878486095E0,-2.292204350E-1,-3.413109109E-2,1.067455560E-1
5.883478231E0,-2.182251811E-1,-1.702736691E-2,1.030804738E-1
5.888409793E0,-2.023431510E-1,1.412584260E-2,1.006370857E-1
5.893270939E0,-1.827960461E-1,5.566345528E-2,9.880454093E-2
5.898167241E0,-1.595838517E-1,1.112505570E-1,9.330692142E-2
5.903063595E0,-1.327065676E-1,1.796654463E-1,8.658760041E-2
5.907959949E0,-1.046075895E-1,2.572430372E-1,7.681404054E-2
5.912856251E0,-7.345438004E-2,3.421508074E-1,6.520794332E-2
5.917752606E0,-4.169032723E-2,4.282802939E-1,5.238015205E-2
5.922648960E0,-1.053711493E-2,5.070796013E-1,3.833066672E-2
5.927545314E0,2.061609551E-2,5.736619234E-1,2.611372061E-2
5.932441616E0,5.176930502E-2,6.213080287E-1,1.817270555E-2
5.937337970E0,7.864658535E-2,6.396334171E-1,1.756185852E-2
5.942234324E0,1.006370857E-1,6.280273199E-1,2.305948362E-2
5.947130626E0,1.159082651E-1,5.919873714E-1,3.405473381E-2
5.952026981E0,1.250709742E-1,5.382328033E-1,5.054761097E-2
5.956923335E0,1.269035190E-1,4.753155112E-1,6.948387623E-2
5.961819637E0,1.232384369E-1,4.111765623E-1,8.964183182E-2
5.966715991E0,1.171299592E-1,3.525352180E-1,1.097997949E-1
5.971612345E0,1.091889441E-1,3.006131947E-1,1.311794519E-1
5.976508647E0,1.030804738E-1,2.602972984E-1,1.489703804E-1
5.981405001E0,1.000262350E-1,2.383067906E-1,1.642415524E-1
5.986301356E0,1.006370857E-1,2.419718653E-1,1.801235825E-1
5.991197658E0,1.073564067E-1,2.725142241E-1,1.966164559E-1
5.996094012E0,1.201841980E-1,3.311555684E-1,2.149418741E-1
6.000990366E0,1.409530044E-1,4.062897861E-1,2.363215387E-1
6.005886720E0,1.690519750E-1,4.875324667E-1,2.607554197E-1
6.010783022E0,2.038702667E-1,5.681642890E-1,2.858001590E-1
6.015679376E0,2.429644912E-1,6.481853127E-1,3.084014952E-1
6.020575731E0,2.826695740E-1,7.850151062E-1,3.285594583E-1
6.025472033E0,3.187095523E-1,9.914814830E-1,3.468848765E-1
6.030368387E0,3.474193811E-1,1.139306545E0,3.584909737E-1
6.035264741E0,3.694098890E-1,1.187563419E0,3.542150557E-1
6.040179220E0,3.828485310E-1,1.182676673E0,3.383330107E-1
6.045057397E0,3.846810758E-1,1.172292233E0,3.163425326E-1
6.049953751E0,3.724641204E-1,1.173513889E0,2.931303382E-1
6.054850054E0,3.431434333E-1,1.164351225E0,2.686964273E-1
6.059764324E0,2.967190444E-1,1.123424411E0,2.442625463E-1
6.064642762E0,2.356343269E-1,1.048290253E0,2.234937400E-1
6.069557241E0,1.623326540E-1,9.481112957E-1,2.027249336E-1
6.074435418E0,7.986827940E-2,8.326611519E-1,1.862320602E-1
6.079349949E0,-6.261184346E-3,7.111025453E-1,1.697391868E-1
6.084228074E0,-9.300149232E-2,5.846571922E-1,1.520246118E-1
6.089142658E0,-1.766875684E-1,4.490490854E-1,1.385096163E-1
6.094020783E0,-2.536543310E-1,3.116084635E-1,1.293469071E-1
6.098917085E0,-3.232909143E-1,1.845522225E-1,1.232384369E-1
6.103813439E0,-3.849864900E-1,8.681666851E-2,1.214058921E-1
6.108709793E0,-4.387410581E-1,1.412584260E-2,1.250709742E-1
6.113606095E0,-4.851654470E-1,-3.535278514E-2,1.324011385E-1
6.118502449E0,-5.248705149E-1,-6.406260282E-2,1.397313178E-1
6.123398804E0,-5.584670901E-1,-8.483141661E-2,1.489703804E-1
6.128295158E0,-5.865660906E-1,-1.043785289E-1,1.563005447E-1
6.133191460E0,-6.091674566E-1,-1.117086932E-1,1.617981642E-1
6.138087814E0,-6.256603003E-1,-1.007134393E-1,1.709608734E-1
6.142984168E0,-6.378772259E-1,-6.711684167E-2,1.825669706E-1
6.147880470E0,-6.470399499E-1,-2.130329795E-2,1.984490007E-1
6.152776824E0,-6.537593007E-1,2.878617682E-2,2.167744190E-1
6.157673179E0,-6.531484127E-1,7.398887724E-2,2.363215387E-1
6.162569481E0,-6.354338527E-1,1.161373332E-1,2.528144121E-1
6.167465835E0,-5.945070982E-1,1.552315652E-1,2.570903301E-1
6.172362189E0,-5.322006941E-1,1.949366331E-1,2.564795017E-1
6.177258491E0,-4.491254389E-1,2.413610220E-1,2.522035539E-1
6.182154845E0,-3.544441164E-1,2.945047319E-1,2.467059344E-1
6.187051199E0,-2.567085624E-1,3.531460762E-1,2.399866134E-1
6.191947501E0,-1.614163816E-1,4.117874205E-1,2.363215387E-1
6.196843856E0,-7.284353673E-2,4.679853618E-1,2.314347625E-1
6.201740210E0,6.566607859E-3,5.150206089E-1,2.222720534E-1
6.206636512E0,7.864658535E-2,5.547256470E-1,2.033357769E-1
6.211532866E0,1.440072358E-1,5.834354758E-1,1.746259630E-1
6.216429220E0,1.910424829E-1,5.895439386E-1,1.556897014E-1
6.221325522E0,2.124221325E-1,5.809921026E-1,1.605764776E-1
6.226221876E0,2.105895877E-1,5.736619234E-1,1.856212169E-1
6.231118231E0,1.977618039E-1,5.803812742E-1,2.192178071E-1
6.236014533E0,1.806580722E-1,6.097019315E-1,2.570903301E-1
6.240910887E0,1.611109674E-1,6.591805220E-1,2.888543904E-1
6.245807241E0,1.391204596E-1,7.159893513E-1,3.132883012E-1
6.250722033E0,1.012479365E-1,7.611920238E-1,3.419981003E-1
6.255599897E0,3.100049868E-2,7.746306658E-1,3.847574294E-1
6.260496251E0,-5.879404768E-2,7.587486506E-1,4.183540046E-1
6.265392554E0,-1.510319859E-1,7.166001797E-1,4.360685945E-1
6.270307085E0,-2.371614426E-1,6.469635963E-1,4.397336841E-1
6.275185262E0,-3.135173619E-1,5.486171842E-1,4.330143631E-1
6.280081564E0,-3.776563108E-1,4.264477491E-1,4.189648628E-1
6.284977918E0,-4.271349311E-1,2.859528661E-1,3.975852132E-1
6.289874272E0,-4.601207078E-1,1.350736022E-1,3.731513321E-1
6.294770574E0,-4.802786708E-1,-1.091889478E-2,3.462740481E-1
6.299666929E0,-4.906630516E-1,-1.453052908E-1,3.175642192E-1
6.304563283E0,-4.906630516E-1,-2.595337331E-1,2.870218456E-1
6.309459585E0,-4.851654470E-1,-3.462740481E-1,2.522035539E-1
6.314355939E0,-4.778352678E-1,-4.012503028E-1,2.173852623E-1
6.319270470E0,-4.674508572E-1,-4.250733256E-1,1.856212169E-1
6.324148595E0,-4.558447599E-1,-4.214082658E-1,1.550788432E-1
6.329048387E0,-4.436278343E-1,-3.963635266E-1,1.281252056E-1
6.333941304E0,-4.308000207E-1,-3.578801453E-1,1.067455560E-1
6.338840679E0,-4.173613787E-1,-3.138991296E-1,9.025268257E-2
6.343733960E0,-4.039227366E-1,-2.729723752E-1,7.986827940E-2
6.348630314E0,-3.923166394E-1,-2.387649268E-1,7.437065244E-2
6.353526616E0,-3.813214004E-1,-2.118876427E-1,7.253811508E-2
6.358422970E0,-3.697153032E-1,-1.966164559E-1,7.437065244E-2
6.363319324E0,-3.593308926E-1,-1.917296797E-1,7.681404054E-2
6.368215626E0,-3.483356535E-1,-1.978381574E-1,8.047912270E-2
6.373111981E0,-3.367295563E-1,-2.082225531E-1,8.536590636E-2
6.378008335E0,-3.239017725E-1,-2.131093442E-1,9.208522737E-2
6.382904637E0,-3.116848171E-1,-2.137201875E-1,1.030804738E-1
6.387859533E0,-2.958027720E-1,-2.051683217E-1,1.152974218E-1
6.392697345E0,-2.805316150E-1,-1.886754483E-1,1.299577504E-1
6.397593647E0,-2.652604282E-1,-1.624090075E-1,1.464506239E-1
6.402490001E0,-2.512109280E-1,-1.300341040E-1,1.611873209E-1
6.407386356E0,-2.377723008E-1,-8.910734206E-2,1.752368063E-1
6.412282658E0,-2.261662036E-1,-4.207210615E-2,1.874537468E-1
6.417179012E0,-2.163926363E-1,8.628217503E-3,1.996707022E-1
6.422075366E0,-2.078407854E-1,6.055023521E-2,2.131093442E-1
6.426971668E0,-2.005106062E-1,1.130831018E-1,2.289913595E-1
6.431868022E0,-1.882936656E-1,1.705027372E-1,2.564795017E-1
6.436764324E0,-1.724116355E-1,2.358634025E-1,2.955737114E-1
6.441660679E0,-1.559187621E-1,3.061108291E-1,3.401655555E-1
6.446557033E0,-1.327065676E-1,3.891860545E-1,3.780381083E-1
6.451453335E0,-8.689302206E-2,4.881433249E-1,3.847574294E-1
6.456349689E0,-2.275406010E-2,5.919873714E-1,3.658211529E-1
6.461246043E0,4.993676394E-2,6.817818880E-1,3.334462345E-1
6.466142345E0,1.220167428E-1,7.446991801E-1,2.986279428E-1
6.471038699E0,1.947075576E-1,7.789065838E-1,2.668638825E-1
6.475935054E0,2.686200738E-1,7.886801958E-1,2.405974567E-1
6.480831356E0,3.400892019E-1,7.801283002E-1,2.161635756E-1
6.485727710E0,4.042281806E-1,7.581378222E-1,1.880646050E-1
6.490624064E0,4.622586668E-1,7.275954485E-1,1.501920670E-1
6.495520366E0,5.086830258E-1,6.939988136E-1,1.043021679E-1
6.500416720E0,5.404471159E-1,6.542937756E-1,5.421269313E-2
6.505313074E0,5.569399595E-1,6.200863123E-1,7.788302377E-3
6.510209376E0,5.551074743E-1,5.987066627E-1,-2.397575416E-2
6.515105731E0,5.337277651E-1,5.858788490E-1,-3.741439432E-2
6.520002085E0,4.958552718E-1,5.883222818E-1,-4.413371533E-2
6.524898387E0,4.512633979E-1,6.090910435E-1,-5.573981255E-2
6.529794741E0,4.072824121E-1,6.487961411E-1,-7.223268598E-2
6.534691095E0,3.639122546E-1,7.049940825E-1,-8.444963396E-2
6.539605626E0,3.144336343E-1,7.550835609E-1,-8.750387281E-2
6.544483751E0,2.606790662E-1,7.856259346E-1,-7.956285775E-2
6.549398231E0,2.020377368E-1,7.960103154E-1,-6.245913357E-2
6.554276408E0,1.440072358E-1,7.874584794E-1,-4.169032723E-2
6.559172762E0,8.780929446E-2,7.599703670E-1,-2.336490713E-2
6.564069064E0,3.649812192E-2,7.117134333E-1,-3.817795310E-3
6.568968856E0,-1.236965694E-2,6.506286860E-1,1.695101149E-2
6.573861772E0,-5.635065958E-2,5.809921026E-1,3.344388679E-2
6.578758074E0,-9.666658193E-2,5.150206089E-1,4.260659590E-2
6.583654429E0,-1.327065676E-1,4.582118094E-1,5.115845799E-2
6.588568960E0,-1.620272398E-1,4.142307937E-1,5.360184610E-2
6.593447085E0,-1.864611208E-1,3.812450469E-1,4.932591692E-2
6.598343439E0,-2.084516287E-1,3.580328524E-1,4.016320780E-2
6.603239793E0,-2.249445021E-1,3.397074342E-1,3.405473381E-2
6.608136095E0,-2.396048307E-1,3.287121952E-1,2.672456764E-2
6.613032449E0,-2.518217862E-1,3.232145607E-1,2.367033064E-2
6.617928751E0,-2.609844804E-1,3.219928741E-1,2.611372061E-2
6.622825106E0,-2.683146596E-1,3.226037025E-1,3.038965166E-2
6.627721460E0,-2.683146596E-1,3.238253891E-1,3.527642787E-2
6.632617762E0,-2.603736520E-1,3.274904788E-1,4.382828996E-2
6.637514116E0,-2.469350100E-1,3.299338818E-1,5.421269313E-2
6.642410470E0,-2.334963679E-1,3.281013370E-1,5.971032009E-2
6.647306772E0,-2.182251811E-1,3.268796504E-1,5.909947306E-2
6.652203126E0,-1.998997629E-1,3.299338818E-1,5.543438718E-2
6.657099481E0,-1.803526580E-1,3.433725238E-1,5.054761097E-2
6.661995783E0,-1.601946950E-1,3.690280914E-1,4.688252881E-2
6.666892137E0,-1.375933439E-1,4.081223309E-1,4.443913698E-2
6.671788491E0,-1.125486046E-1,4.569900930E-1,4.504998401E-2
6.676684793E0,-8.567132801E-2,5.107446909E-1,4.810422286E-2
6.681581147E0,-5.451811850E-2,5.614449978E-1,5.054761097E-2
6.686477501E0,-2.153236605E-2,6.066476703E-1,5.360184610E-2
6.691373804E0,1.267508045E-2,6.414659619E-1,5.726693198E-2
6.696270158E0,5.238015205E-2,6.652890444E-1,5.971032009E-2
6.701166460E0,9.758284688E-2,6.799493432E-1,6.215370819E-2
6.706062814E0,1.440072358E-1,6.872795224E-1,6.642963737E-2
6.710959168E0,1.837123185E-1,6.891120672E-1,6.642963737E-2
6.715855470E0,2.166980654E-1,6.897228956E-1,6.154286116E-2
6.720751824E0,2.386885732E-1,6.891120672E-1,5.176930502E-2
6.725648179E0,2.509055138E-1,6.921663284E-1,3.955236077E-2
6.730544481E0,2.588465214E-1,6.958313584E-1,2.733541466E-2
6.735440835E0,2.631224692E-1,6.927771568E-1,1.328592747E-2
6.740355366E0,2.655658424E-1,6.805602312E-1,-7.635590737E-4
6.745233491E0,2.661767006E-1,6.616239548E-1,-1.725643501E-2
6.750147970E0,2.612899244E-1,6.365792155E-1,-3.802524135E-2
6.755026147E0,2.515163720E-1,6.115344763E-1,-5.940489471E-2
6.759922501E0,2.399102598E-1,5.895439386E-1,-8.139539510E-2
6.764818856E0,2.270824611E-1,5.767161846E-1,-1.027750522E-1
6.769733647E0,2.154763639E-1,5.699968338E-1,-1.180462316E-1
6.774611512E0,2.038702667E-1,5.693860054E-1,-1.259872466E-1
6.779507866E0,1.879882365E-1,5.712185502E-1,-1.290414780E-1
6.784404168E0,1.653869003E-1,5.718293786E-1,-1.290414780E-1
6.789318699E0,1.397313178E-1,5.663317442E-1,-1.284306347E-1
6.794196876E0,1.146865711E-1,5.510605574E-1,-1.241547018E-1
6.799093179E0,9.330692142E-2,5.278483629E-1,-1.149920002E-1
6.803989533E0,7.437065244E-2,4.991385639E-1,-1.009425074E-1
6.808889168E0,5.665608495E-2,4.655419588E-1,-8.750387281E-2
6.813782189E0,3.955236077E-2,4.313345253E-1,-7.711946964E-2
6.818678543E0,1.817270555E-2,4.007921517E-1,-7.284353673E-2
6.823574845E0,-8.093725890E-3,3.751365840E-1,-6.978929788E-2
6.828471199E0,-3.436015919E-2,3.610870838E-1,-6.978929788E-2
6.833367554E0,-6.123743951E-2,3.568111658E-1,-7.223268598E-2
6.838361460E0,-8.994726092E-2,3.513135314E-1,-7.101099193E-2
6.843160158E0,-1.162136942E-1,3.470376134E-1,-6.306997687E-2
6.848056512E0,-1.363716573E-1,3.421508074E-1,-5.512896553E-2
6.852952866E0,-1.510319859E-1,3.378748894E-1,-4.718795046E-2
6.857849220E0,-1.656923145E-1,3.323772550E-1,-3.985778242E-2
6.862745522E0,-1.821851879E-1,3.213820159E-1,-3.252761811E-2
6.867641876E0,-1.980672181E-1,3.146626949E-1,-2.764083818E-2
6.872538231E0,-2.060082406E-1,3.177169263E-1,-1.908897609E-2
6.877434533E0,-2.084516287E-1,3.305447102E-1,-1.236965694E-2
6.882330887E0,-2.060082406E-1,3.445942104E-1,-4.428642802E-3
6.887227189E0,-2.041756958E-1,3.513135314E-1,5.955760833E-3
6.892123543E0,-2.029540092E-1,3.464267552E-1,2.122694254E-2
6.897019897E0,-1.998997629E-1,3.335989714E-1,4.138490185E-2
6.901916199E0,-1.925695986E-1,3.158843815E-1,6.337540597E-2
6.906812554E0,-1.846285909E-1,2.938938737E-1,8.475505561E-2
6.911708908E0,-1.791309565E-1,2.743467689E-1,1.043021679E-1
6.916605210E0,-1.754658818E-1,2.627406716E-1,1.214058921E-1
6.921501564E0,-1.785201132E-1,2.627406716E-1,1.324011385E-1
6.926397866E0,-1.852394342E-1,2.749576271E-1,1.378987730E-1
6.931294220E0,-1.919587553E-1,2.963372767E-1,1.366770715E-1
6.936190574E0,-1.956238300E-1,3.274904788E-1,1.372879148E-1
6.941086876E0,-1.956238300E-1,3.671955466E-1,1.427855492E-1
6.945983231E0,-1.919587553E-1,4.087331593E-1,1.532463133E-1
6.950879585E0,-1.852394342E-1,4.484382570E-1,1.679066420E-1
6.955775887E0,-1.736333370E-1,4.875324667E-1,1.795127392E-1
6.960690418E0,-1.565296054E-1,5.254049897E-1,1.843995154E-1
6.965568543E0,-1.375933439E-1,5.632775426E-1,1.837886721E-1
6.970464897E0,-1.204896197E-1,5.968741179E-1,1.807344258E-1
6.975361251E0,-1.052184403E-1,6.255839467E-1,1.776801944E-1
6.980257554E0,-8.933641016E-2,6.506286860E-1,1.691283286E-1
6.985153908E0,-7.040014863E-2,6.683432460E-1,1.508029103E-1
6.990050262E0,-5.024218559E-2,6.750625968E-1,1.232384369E-1
6.994946564E0,-2.947338112E-2,6.701757908E-1,9.208522737E-2
6.999842918E0,-6.261184346E-3,6.585696936E-1,5.971032009E-2
7.004739220E0,1.817270555E-2,6.463527679E-1,2.489202656E-2
7.009653751E0,4.321744293E-2,6.384117603E-1,-1.236965694E-2
7.014531929E0,6.459710002E-2,6.365792155E-1,-5.024218559E-2
7.019446460E0,8.536590636E-2,6.408551335E-1,-8.322793990E-2
7.024324585E0,1.061347127E-1,6.512395144E-1,-1.119377613E-1
7.029220887E0,1.238492802E-1,6.658998728E-1,-1.302631795E-1
7.034117241E0,1.391204596E-1,6.848361492E-1,-1.418692768E-1
7.039017866E0,1.513374150E-1,7.080483437E-1,-1.473668963E-1
7.043909897E0,1.641651988E-1,7.294279933E-1,-1.467560530E-1
7.048806251E0,1.745496094E-1,7.550835609E-1,-1.424801201E-1
7.053702606E0,1.788255423E-1,7.727981210E-1,-1.363716573E-1
7.058598908E0,1.757712960E-1,7.844042182E-1,-1.259872466E-1
7.063495262E0,1.672194302E-1,7.917343974E-1,-1.143811494E-1
7.068391564E0,1.519482583E-1,7.929561138E-1,-1.003316641E-1
7.073287918E0,1.305686086E-1,7.892910242E-1,-8.628217876E-2
7.078184272E0,1.043021679E-1,7.899018526E-1,-7.284353673E-2
7.083080574E0,7.681404054E-2,7.960103154E-1,-5.757235363E-2
7.087976929E0,4.871506989E-2,8.112815022E-1,-4.352286831E-2
7.092873283E0,1.939439960E-2,8.332720399E-1,-3.008422814E-2
7.097769585E0,-1.664558798E-2,8.638143539E-1,-1.542389300E-2
7.102665939E0,-5.451811850E-2,8.888590932E-1,-2.596100792E-3
7.107562241E0,-8.994726092E-2,8.906916380E-1,1.023169141E-2
7.112458595E0,-1.211004704E-1,8.693119884E-1,2.183778957E-2
7.117354949E0,-1.473668963E-1,8.320503235E-1,2.733541466E-2
7.122251251E0,-1.730224788E-1,7.874584794E-1,2.489202656E-2
7.127147606E0,-2.011214644E-1,7.440882921E-1,1.878355257E-2
7.132043908E0,-2.316638231E-1,7.025507092E-1,1.450762246E-2
7.136940262E0,-2.628170252E-1,6.677324176E-1,9.620844387E-3
7.141836616E0,-2.927485406E-1,6.439093947E-1,1.068982761E-3
7.146732918E0,-3.208475113E-1,6.261947751E-1,-7.482878864E-3
7.151629272E0,-3.495573401E-1,6.097019315E-1,-1.359135192E-2
7.156525574E0,-3.776563108E-1,5.974849463E-1,-1.725643501E-2
7.161421929E0,-4.057552814E-1,5.889331102E-1,-1.603474095E-2
7.166318283E0,-4.320217371E-1,5.852680206E-1,-1.603474095E-2
7.171214585E0,-4.558447599E-1,5.871005654E-1,-1.175880991E-2
7.176110939E0,-4.772244096E-1,5.968741179E-1,-6.261184346E-3
7.181007293E0,-4.943281412E-1,6.109235883E-1,-7.635590737E-4
7.185903595E0,-5.083776116E-1,6.286382079E-1,3.512371797E-3
7.190818126E0,-5.199837089E-1,6.475744247E-1,6.566607859E-3
7.195696251E0,-5.273138881E-1,6.640673280E-1,1.084253844E-2
7.200592606E0,-5.315898061E-1,6.830036044E-1,2.061609551E-2
7.205488960E0,-5.291464329E-1,7.037724257E-1,2.916795574E-2
7.210403699E0,-5.205945969E-1,7.312605381E-1,3.833066672E-2
7.215281616E0,-5.095993280E-1,7.605811954E-1,4.321744293E-2
7.220177918E0,-4.955498278E-1,7.899018526E-1,3.894151375E-2
7.225074272E0,-4.802786708E-1,8.210550547E-1,2.794626169E-2
7.229970626E0,-4.656183124E-1,8.515974283E-1,7.788302377E-3
7.234866929E0,-4.527905285E-1,8.796964288E-1,-2.397575416E-2
7.239763283E0,-4.430169761E-1,8.998543620E-1,-6.123743951E-2
7.244659585E0,-4.369085133E-1,9.084062576E-1,-1.039967462E-1
7.249574116E0,-4.344651103E-1,9.047411680E-1,-1.498102844E-1
7.254452293E0,-4.393518865E-1,8.864157200E-1,-1.901262105E-1
7.259366772E0,-4.485146105E-1,8.577058911E-1,-2.237228155E-1
7.264244949E0,-4.650074840E-1,8.192225099E-1,-2.506000996E-1
7.269141304E0,-4.845545888E-1,7.764632106E-1,-2.719797492E-1
7.274037606E0,-5.053234100E-1,7.324821949E-1,-2.860292196E-1
7.278933960E0,-5.279247165E-1,6.891120672E-1,-2.927485406E-1
7.283830262E0,-5.493044257E-1,6.518504024E-1,-2.903051674E-1
7.288744793E0,-5.700731874E-1,6.249731183E-1,-2.829749882E-1
7.293622970E0,-5.896202922E-1,6.097019315E-1,-2.689255178E-1
7.298519272E0,-6.036698222E-1,6.035934687E-1,-2.481566966E-1
7.303415626E0,-6.140542030E-1,6.066476703E-1,-2.194468826E-1
7.308311929E0,-6.146650314E-1,6.188646555E-1,-1.864611208E-1
7.313208283E0,-6.055023670E-1,6.426876783E-1,-1.522536725E-1
7.318104637E0,-5.902311802E-1,6.707866192E-1,-1.162136942E-1
7.323000939E0,-5.694623590E-1,7.043832541E-1,-8.200624585E-2
7.327897293E0,-5.438067913E-1,7.410340905E-1,-5.024218559E-2
7.332793595E0,-5.187620521E-1,7.789065838E-1,-2.336490713E-2
7.337689949E0,-4.937172830E-1,8.155574203E-1,2.901524538E-3
7.342586304E0,-4.692834020E-1,8.497648835E-1,2.794626169E-2
7.347482606E0,-4.479037523E-1,8.815289736E-1,5.421269313E-2
7.352378960E0,-4.277457893E-1,9.065737128E-1,7.742489129E-2
7.357275262E0,-4.094203711E-1,9.194014668E-1,9.575030953E-2
7.362171616E0,-3.935383558E-1,9.248991013E-1,1.104106456E-1
7.367067970E0,-3.788780272E-1,9.267316461E-1,1.220167428E-1
7.371964272E0,-3.666610718E-1,9.285641909E-1,1.269035190E-1
7.376860626E0,-3.562766612E-1,9.352834821E-1,1.262926757E-1
7.381756929E0,-3.513898849E-1,9.487221241E-1,1.207950488E-1
7.386653283E0,-3.513898849E-1,9.682692885E-1,1.104106456E-1
7.391549637E0,-3.538332880E-1,9.914814830E-1,9.330692142E-2
7.396445939E0,-3.568875194E-1,1.007363439E0,7.314895838E-2
7.401342293E0,-3.605526090E-1,1.014693618E0,5.238015205E-2
7.406238595E0,-3.623851240E-1,1.014693618E0,2.916795574E-2
7.411134949E0,-3.629959822E-1,1.001255035E0,5.955760833E-3
7.416031304E0,-3.636068404E-1,9.755994081E-1,-1.603474095E-2
7.420927606E0,-3.654393852E-1,9.432245493E-1,-3.680354729E-2
7.425823960E0,-3.666610718E-1,9.041302800E-1,-5.573981255E-2
7.430720262E0,-3.684936166E-1,8.613709807E-1,-7.223268598E-2
7.435616616E0,-3.678827584E-1,8.228875995E-1,-8.689302206E-2
7.440512970E0,-3.660502136E-1,7.874584794E-1,-1.009425074E-1
7.445409272E0,-3.623851240E-1,7.575269341E-1,-1.125486046E-1
7.450305626E0,-3.538332880E-1,7.355364561E-1,-1.204896197E-1
7.455201929E0,-3.428380191E-1,7.220978141E-1,-1.278197914E-1
7.460098283E0,-3.263451457E-1,7.166001797E-1,-1.302631795E-1
7.464994637E0,-3.067980409E-1,7.220978141E-1,-1.296523362E-1
7.469890939E0,-2.872509360E-1,7.373690009E-1,-1.284306347E-1
7.474787293E0,-2.670929730E-1,7.605811954E-1,-1.235438585E-1
7.479683595E0,-2.481566966E-1,7.892910242E-1,-1.156028435E-1
7.484579949E0,-2.334963679E-1,8.186116815E-1,-1.027750522E-1
7.489476304E0,-2.188360244E-1,8.497648835E-1,-8.750387281E-2
7.494372606E0,-2.060082406E-1,8.748096228E-1,-6.673506647E-2
7.499268960E0,-1.974563748E-1,8.943567276E-1,-4.230117425E-2
7.504165262E0,-1.907370538E-1,9.114604592E-1,-1.603474095E-2
7.509061616E0,-1.882936656E-1,9.255099297E-1,1.145338640E-2
7.513957918E0,-1.864611208E-1,9.377269149E-1,3.588727489E-2
7.518854272E0,-1.876828223E-1,9.499438405E-1,6.032116711E-2
7.523750626E0,-1.937913001E-1,9.597173929E-1,8.292251825E-2
7.528646929E0,-2.078407854E-1,9.676584005E-1,1.012479365E-1
7.533543283E0,-2.279987335E-1,9.731560349E-1,1.165191159E-1
7.538537137E0,-2.493783981E-1,9.762102962E-1,1.299577504E-1
7.543335887E0,-2.713688910E-1,9.768211246E-1,1.421747059E-1
7.548232293E0,-2.903051674E-1,9.755994081E-1,1.514137685E-1
7.553128595E0,-3.055763543E-1,9.737668633E-1,1.575222313E-1
7.558024949E0,-3.208475113E-1,9.743777514E-1,1.611873209E-1
7.562921251E0,-3.361186981E-1,9.755994081E-1,1.611873209E-1
7.567817606E0,-3.495573401E-1,9.731560349E-1,1.599656194E-1
7.572713960E0,-3.648285270E-1,9.682692885E-1,1.569113880E-1
7.577610262E0,-3.807105422E-1,9.584956765E-1,1.538571566E-1
7.582506616E0,-3.935383558E-1,9.444462061E-1,1.514137685E-1
7.587402918E0,-3.990359604E-1,9.291750193E-1,1.544679999E-1
7.592299272E0,-3.935383558E-1,9.114604592E-1,1.617981642E-1
7.597195574E0,-3.788780272E-1,8.961892724E-1,1.660740972E-1
7.602091929E0,-3.587200642E-1,8.839723468E-1,1.679066420E-1
7.606988283E0,-3.379512429E-1,8.735879660E-1,1.660740972E-1
7.611884585E0,-3.184041381E-1,8.687011600E-1,1.660740972E-1
7.616780939E0,-2.994678617E-1,8.650360703E-1,1.679066420E-1
7.621677241E0,-2.841966748E-1,8.625926971E-1,1.685174853E-1
7.626573595E0,-2.725905776E-1,8.625926971E-1,1.679066420E-1
7.631469949E0,-2.658712566E-1,8.656468987E-1,1.679066420E-1
7.636366251E0,-2.658712566E-1,8.656468987E-1,1.672957987E-1
7.641262606E0,-2.713688910E-1,8.662577868E-1,1.666849405E-1
7.646158908E0,-2.817533016E-1,8.644252419E-1,1.666849405E-1
7.651055262E0,-2.958027720E-1,8.601493239E-1,1.672957987E-1
7.655951616E0,-3.110739589E-1,8.528191447E-1,1.679066420E-1
7.660847918E0,-3.281776905E-1,8.436564207E-1,1.691283286E-1
7.665744272E0,-3.440597057E-1,8.344936967E-1,1.697391868E-1
7.670640574E0,-3.599417508E-1,8.308286071E-1,1.715717167E-1
7.675536929E0,-3.746020794E-1,8.326611519E-1,1.721825749E-1
7.680433231E0,-3.880407214E-1,8.381587863E-1,1.709608734E-1
7.685329585E0,-3.978142738E-1,8.503757119E-1,1.679066420E-1
7.690225939E0,-4.057552814E-1,8.723662496E-1,1.660740972E-1
7.695122241E0,-4.118637741E-1,8.968001604E-1,1.599656194E-1
7.700018595E0,-4.149180055E-1,9.212340117E-1,1.538571566E-1
7.704914897E0,-4.173613787E-1,9.475004673E-1,1.452289373E-1
7.709811251E0,-4.173613787E-1,9.719343185E-1,1.372879148E-1
7.714707606E0,-4.155288339E-1,9.927031398E-1,1.293469071E-1
7.719622085E0,-4.136963189E-1,1.011028528E0,1.244601309E-1
7.724500262E0,-4.081986845E-1,1.024467230E0,1.207950488E-1
7.729400210E0,-3.990359604E-1,1.034240723E0,1.189625040E-1
7.734292918E0,-3.880407214E-1,1.034851670E0,1.165191159E-1
7.739189220E0,-3.739912212E-1,1.032408237E0,1.171299592E-1
7.744085574E0,-3.568875194E-1,1.021412969E0,1.195733473E-1
7.748985418E0,-3.373403847E-1,1.005530953E0,1.244601309E-1
7.753878231E0,-3.171824515E-1,9.896489382E-1,1.317902952E-1
7.758774585E0,-2.988570333E-1,9.749885798E-1,1.409530044E-1
7.763670887E0,-2.811424434E-1,9.652150273E-1,1.508029103E-1
7.768567241E0,-2.664821148E-1,9.609391093E-1,1.636307091E-1
7.773463543E0,-2.554868758E-1,9.597173929E-1,1.752368063E-1
7.778359897E0,-2.469350100E-1,9.627716541E-1,1.868429035E-1
7.783256251E0,-2.402156889E-1,9.676584005E-1,1.960056126E-1
7.788250106E0,-2.359397560E-1,9.749885798E-1,2.033357769E-1
7.793048856E0,-2.334963679E-1,9.780428410E-1,2.088334113E-1
7.797945210E0,-2.347180545E-1,9.755994081E-1,2.143310308E-1
7.802841564E0,-2.389939874E-1,9.688801169E-1,2.210503519E-1
7.807737918E0,-2.457133085E-1,9.603282213E-1,2.277696729E-1
7.812634220E0,-2.548760176E-1,9.517763853E-1,2.350998372E-1
7.817530574E0,-2.652604282E-1,9.462787509E-1,2.418191582E-1
7.822426876E0,-2.750339806E-1,9.456679225E-1,2.485384792E-1
7.827323231E0,-2.823641598E-1,9.499438405E-1,2.528144121E-1
7.832219533E0,-2.872509360E-1,9.615499377E-1,2.570903301E-1
7.837115887E0,-2.896943092E-1,9.817079306E-1,2.601445615E-1
7.842012241E0,-2.903051674E-1,1.009806871E0,2.638096511E-1
7.846908543E0,-2.909159958E-1,1.045235991E0,2.668638825E-1
7.851804897E0,-2.903051674E-1,1.080665112E0,2.680855989E-1
7.856701199E0,-2.878617644E-1,1.113650918E0,2.693072855E-1
7.861597554E0,-2.823641598E-1,1.141749859E0,2.711398304E-1
7.866493856E0,-2.762556672E-1,1.157021046E0,2.735832036E-1
7.871390210E0,-2.689255178E-1,1.162518740E0,2.741940618E-1
7.876286564E0,-2.615953386E-1,1.158853650E0,2.766374648E-1
7.881182866E0,-2.542651594E-1,1.144193292E0,2.772482932E-1
7.886079220E0,-2.469350100E-1,1.120370269E0,2.748049200E-1
7.890993751E0,-2.377723008E-1,1.087995291E0,2.723615170E-1
7.895871876E0,-2.304421216E-1,1.048901081E0,2.680855989E-1
7.900768179E0,-2.231119573E-1,1.007974386E0,2.613662779E-1
7.905664533E0,-2.163926363E-1,9.670475721E-1,2.546469569E-1
7.910560887E0,-2.102841735E-1,9.279533625E-1,2.454842478E-1
7.915457189E0,-2.029540092E-1,8.931350708E-1,2.357106805E-1
7.920371720E0,-1.937913001E-1,8.662577868E-1,2.271588296E-1
7.925249845E0,-1.815743446E-1,8.503757119E-1,2.216611952E-1
7.930164376E0,-1.705790907E-1,8.418238759E-1,2.173852623E-1
7.935042501E0,-1.608055383E-1,8.412130475E-1,2.161635756E-1
7.939938856E0,-1.534753740E-1,8.442672491E-1,2.155527323E-1
7.944835158E0,-1.479777545E-1,8.503757119E-1,2.179961205E-1
7.949749689E0,-1.467560530E-1,8.570950627E-1,2.216611952E-1
7.954627866E0,-1.485885978E-1,8.638143539E-1,2.289913595E-1
7.959524168E0,-1.534753740E-1,8.680903316E-1,2.375432253E-1
7.964420522E0,-1.608055383E-1,8.680903316E-1,2.473167777E-1
7.969316824E0,-1.711899489E-1,8.632035255E-1,2.552577853E-1
7.974213179E0,-1.840177327E-1,8.583167791E-1,2.631988227E-1
7.979109481E0,-2.005106062E-1,8.522082567E-1,2.723615170E-1
7.984005835E0,-2.194468826E-1,8.442672491E-1,2.839676142E-1
7.988902189E0,-2.389939874E-1,8.344936967E-1,2.949628830E-1
7.993798491E0,-2.591519356E-1,8.271635175E-1,3.047364354E-1
7.998694845E0,-2.768665254E-1,8.247201443E-1,3.132883012E-1
8.003591147E0,-2.903051674E-1,8.259418607E-1,3.181750774E-1
8.008487501E0,-3.019112647E-1,8.277744055E-1,3.236726820E-1
8.013383804E0,-3.104631305E-1,8.259418607E-1,3.303920031E-1
8.018280158E0,-3.177932799E-1,8.186116815E-1,3.389438689E-1
8.023176512E0,-3.226800561E-1,8.051730394E-1,3.450523317E-1
8.028072814E0,-3.251234591E-1,7.892910242E-1,3.499391377E-1
8.032969168E0,-3.226800561E-1,7.727981210E-1,3.523825109E-1
8.037865470E0,-3.165715933E-1,7.550835609E-1,3.548259139E-1
8.042761824E0,-3.049654961E-1,7.361472845E-1,3.536041975E-1
8.047658126E0,-2.909159958E-1,7.202652693E-1,3.517716527E-1
8.052554481E0,-2.713688910E-1,7.043832541E-1,3.487174213E-1
8.057450835E0,-2.493783981E-1,6.921663284E-1,3.450523317E-1
8.062347137E0,-2.249445021E-1,6.787276864E-1,3.395547271E-1
8.067243491E0,-2.017323077E-1,6.646781564E-1,3.346679509E-1
8.072139793E0,-1.785201132E-1,6.500178576E-1,3.334462345E-1
8.077036147E0,-1.559187621E-1,6.347466707E-1,3.340570927E-1
8.081932449E0,-1.375933439E-1,6.219188571E-1,3.395547271E-1
8.086828804E0,-1.235438585E-1,6.121453047E-1,3.487174213E-1
8.091725106E0,-1.119377613E-1,6.048151255E-1,3.578801453E-1
8.096621460E0,-1.027750522E-1,5.993174911E-1,3.670428395E-1
8.101517814E0,-9.422318637E-2,5.962632895E-1,3.762055635E-1
8.106414116E0,-9.116895497E-2,5.925981998E-1,3.872008026E-1
8.111310470E0,-9.177979827E-2,5.840463638E-1,3.963635266E-1
8.116206772E0,-9.849911928E-2,5.736619234E-1,4.055262208E-1
8.121103126E0,-1.064401343E-1,5.632775426E-1,4.116346836E-1
8.125999429E0,-1.149920002E-1,5.565581918E-1,4.171323180E-1
8.130895783E0,-1.235438585E-1,5.559473634E-1,4.146889448E-1
8.135792085E0,-1.327065676E-1,5.608341694E-1,4.073587656E-1
8.140688439E0,-1.406475753E-1,5.736619234E-1,3.975852132E-1
8.145584793E0,-1.467560530E-1,5.919873714E-1,3.835357130E-1
8.150481095E0,-1.504211426E-1,6.188646555E-1,3.664320111E-1
8.155377449E0,-1.498102844E-1,6.506286860E-1,3.456631899E-1
8.160292189E0,-1.473668963E-1,6.811710596E-1,3.218401372E-1
8.165170106E0,-1.412584335E-1,7.056049109E-1,2.949628830E-1
8.170084585E0,-1.320957243E-1,7.227086425E-1,2.693072855E-1
8.174962762E0,-1.192679256E-1,7.275954485E-1,2.436517030E-1
8.179859064E0,-1.015533581E-1,7.141568065E-1,2.241045833E-1
8.184755418E0,-8.261708915E-2,6.878903508E-1,2.082225531E-1
8.189669949E0,-6.123743951E-2,6.573479772E-1,1.953947693E-1
8.194548074E0,-4.230117425E-2,6.304707527E-1,1.886754483E-1
8.199444429E0,-2.580829710E-2,6.164212227E-1,1.874537468E-1
8.204340731E0,-1.420219894E-2,6.133670211E-1,1.917296797E-1
8.209237085E0,-2.596100792E-3,6.176429391E-1,1.990598440E-1
8.214133387E0,6.566607859E-3,6.255839467E-1,2.106659412E-1
8.219029741E0,1.389677543E-2,6.329141259E-1,2.222720534E-1
8.223926043E0,2.000524849E-2,6.408551335E-1,2.369323820E-1
8.228822397E0,2.244863659E-2,6.494069695E-1,2.528144121E-1
8.233718751E0,2.489202656E-2,6.616239548E-1,2.674747407E-1
8.238618335E0,2.489202656E-2,6.775059700E-1,2.796916962E-1
8.243511408E0,2.183778957E-2,6.958313584E-1,2.894652486E-1
8.248407710E0,1.817270555E-2,7.166001797E-1,2.986279428E-1
8.253304064E0,1.328592747E-2,7.367581725E-1,3.053472638E-1
8.258200366E0,9.009997360E-3,7.550835609E-1,3.090123534E-1
8.263096720E0,4.734066315E-3,7.685222030E-1,3.096232116E-1
8.267993074E0,4.581354442E-4,7.752415538E-1,3.071798086E-1
8.272889376E0,-5.650337320E-3,7.727981210E-1,3.071798086E-1
8.277785679E0,-1.114796288E-2,7.660788298E-1,3.077906668E-1
8.282682033E0,-1.847812906E-2,7.544727325E-1,3.065689802E-1
8.287675939E0,-2.886253223E-2,7.392015457E-1,3.053472638E-1
8.292474637E0,-3.802524135E-2,7.184327245E-1,3.016822040E-1
8.297371043E0,-4.474456236E-2,6.982747912E-1,2.980171144E-1
8.302267345E0,-5.024218559E-2,6.793385148E-1,2.967953980E-1
8.307163699E0,-5.390727147E-2,6.658998728E-1,2.937411666E-1
8.312060001E0,-5.757235363E-2,6.591805220E-1,2.925194800E-1
8.316956356E0,-6.368082762E-2,6.567371488E-1,2.876327038E-1
8.321852710E0,-7.162184268E-2,6.616239548E-1,2.803025246E-1
8.326749012E0,-8.139539510E-2,6.695649624E-1,2.711398304E-1
8.331645314E0,-9.300149232E-2,6.793385148E-1,2.607554197E-1
8.336541668E0,-1.058292910E-1,6.915554404E-1,2.485384792E-1
8.341438022E0,-1.211004704E-1,7.007181644E-1,2.369323820E-1
8.346334324E0,-1.375933439E-1,7.074374557E-1,2.277696729E-1
8.351230679E0,-1.565296054E-1,7.098808885E-1,2.222720534E-1
8.356126981E0,-1.730224788E-1,7.074374557E-1,2.198286504E-1
8.361023335E0,-1.889045089E-1,7.031615376E-1,2.186069638E-1
8.365919637E0,-2.023431510E-1,7.019398808E-1,2.192178071E-1
8.370834168E0,-2.115058601E-1,7.025507092E-1,2.198286504E-1
8.375712293E0,-2.188360244E-1,7.062157989E-1,2.216611952E-1
8.380626824E0,-2.255553454E-1,7.123242617E-1,2.241045833E-1
8.385505001E0,-2.286095917E-1,7.172110677E-1,2.247154415E-1
8.390401304E0,-2.334963679E-1,7.178218961E-1,2.253262848E-1
8.395297658E0,-2.396048307E-1,7.141568065E-1,2.253262848E-1
8.400212189E0,-2.438807636E-1,7.068266273E-1,2.216611952E-1
8.405090314E0,-2.463241518E-1,6.970530748E-1,2.155527323E-1
8.410004793E0,-2.457133085E-1,6.866686940E-1,2.076117098E-1
8.414882970E0,-2.396048307E-1,6.793385148E-1,2.002815455E-1
8.419797501E0,-2.298312783E-1,6.756734252E-1,1.935622245E-1
8.424675626E0,-2.182251811E-1,6.726191640E-1,1.880646050E-1
8.429590106E0,-2.035648525E-1,6.744517088E-1,1.813452840E-1
8.434468283E0,-1.870719790E-1,6.781167984E-1,1.734042615E-1
8.439382762E0,-1.687465608E-1,6.878903508E-1,1.679066420E-1
8.444260939E0,-1.516428292E-1,7.019398808E-1,1.611873209E-1
8.449157293E0,-1.351499557E-1,7.172110677E-1,1.538571566E-1
8.454053595E0,-1.174353883E-1,7.361472845E-1,1.470614821E-1
8.458949949E0,-1.003316641E-1,7.563052773E-1,1.415638477E-1
8.463846251E0,-8.506047726E-2,7.746306658E-1,1.372879148E-1
8.468742606E0,-7.101099193E-2,7.905126810E-1,1.366770715E-1
8.473638908E0,-5.879404768E-2,8.027296662E-1,1.391204596E-1
8.478535262E0,-4.963133857E-2,8.094489574E-1,1.433963925E-1
8.483431564E0,-4.535540938E-2,8.094489574E-1,1.495812237E-1
8.488327918E0,-4.474456236E-2,8.027296662E-1,1.575222313E-1
8.493224272E0,-4.657710344E-2,7.911235690E-1,1.642415524E-1
8.498120574E0,-5.268557742E-2,7.758523822E-1,1.740151197E-1
8.503016929E0,-6.001574174E-2,7.611920238E-1,1.801235825E-1
8.507913231E0,-6.856760383E-2,7.495859265E-1,1.856212169E-1
8.512809585E0,-7.711946964E-2,7.446991801E-1,1.911188364E-1
8.517705887E0,-8.628217876E-2,7.477533817E-1,1.978381574E-1
8.522602241E0,-9.544488788E-2,7.538618445E-1,2.088334113E-1
8.527498543E0,-1.009425074E-1,7.630245686E-1,2.222720534E-1
8.532394897E0,-1.064401343E-1,7.709655762E-1,2.350998372E-1
8.537291199E0,-1.094943732E-1,7.776849270E-1,2.473167777E-1
8.542187554E0,-1.119377613E-1,7.795174718E-1,2.607554197E-1
8.547083856E0,-1.137702987E-1,7.789065838E-1,2.741940618E-1
8.551980210E0,-1.156028435E-1,7.764632106E-1,2.845784724E-1
8.556876512E0,-1.168245375E-1,7.758523822E-1,2.931303382E-1
8.561772866E0,-1.174353883E-1,7.758523822E-1,2.986279428E-1
8.566669220E0,-1.192679256E-1,7.795174718E-1,3.004604876E-1
8.571565522E0,-1.186570823E-1,7.844042182E-1,2.992388010E-1
8.576461876E0,-1.192679256E-1,7.899018526E-1,2.961845696E-1
8.581358179E0,-1.168245375E-1,7.966212034E-1,2.894652486E-1
8.586254533E0,-1.131594554E-1,8.021187782E-1,2.839676142E-1
8.591150835E0,-1.082726792E-1,8.063947558E-1,2.784699798E-1
8.596047189E0,-1.021642014E-1,8.088381290E-1,2.741940618E-1
8.600943491E0,-9.727742523E-2,8.131140471E-1,2.711398304E-1
8.605839845E0,-9.177979827E-2,8.186116815E-1,2.705289721E-1
8.610736147E0,-8.750387281E-2,8.259418607E-1,2.693072855E-1
8.615632501E0,-8.628217876E-2,8.338828683E-1,2.705289721E-1
8.620546981E0,-8.444963396E-2,8.424347043E-1,2.705289721E-1
8.625425158E0,-8.139539510E-2,8.503757119E-1,2.717506886E-1
8.630339637E0,-7.956285775E-2,8.577058911E-1,2.735832036E-1
8.635217814E0,-7.406523079E-2,8.650360703E-1,2.754157484E-1
8.640114116E0,-6.856760383E-2,8.711445332E-1,2.778591514E-1
8.645010470E0,-6.062658876E-2,8.723662496E-1,2.803025246E-1
8.649906824E0,-5.085303262E-2,8.693119884E-1,2.833567858E-1
8.654803126E0,-4.046862945E-2,8.656468987E-1,2.845784724E-1
8.659699481E0,-3.069507517E-2,8.644252419E-1,2.882435620E-1
8.664595783E0,-2.092151903E-2,8.662577868E-1,2.937411666E-1
8.669510314E0,-1.298050396E-2,8.693119884E-1,2.998496592E-1
8.674388439E0,-8.093725890E-3,8.723662496E-1,3.077906668E-1
8.679284793E0,-7.482878864E-3,8.735879660E-1,3.157316744E-1
8.684181095E0,-1.236965694E-2,8.729770780E-1,3.236726820E-1
8.689095626E0,-1.847812906E-2,8.674794436E-1,3.285594583E-1
8.693973751E0,-2.947338112E-2,8.625926971E-1,3.340570927E-1
8.698870106E0,-4.291202128E-2,8.552625179E-1,3.365004957E-1
8.703766408E0,-5.757235363E-2,8.485432267E-1,3.407764137E-1
8.708662762E0,-7.223268598E-2,8.436564207E-1,3.456631899E-1
8.713559064E0,-8.689302206E-2,8.393805027E-1,3.481065929E-1
8.718455418E0,-9.727742523E-2,8.375479579E-1,3.468848765E-1
8.723351720E0,-1.058292910E-1,8.363262415E-1,3.456631899E-1
8.728248074E0,-1.125486046E-1,8.369371295E-1,3.438306451E-1
8.733144429E0,-1.174353883E-1,8.412130475E-1,3.432198167E-1
8.738040731E0,-1.211004704E-1,8.485432267E-1,3.444415033E-1
8.742937085E0,-1.217113137E-1,8.625926971E-1,3.444415033E-1
8.747833387E0,-1.186570823E-1,8.839723468E-1,3.438306451E-1
8.752729741E0,-1.107160673E-1,9.077953696E-1,3.401655555E-1
8.757626043E0,-1.021642014E-1,9.291750193E-1,3.346679509E-1
8.762522397E0,-9.544488788E-2,9.432245493E-1,3.261160851E-1
8.767418699E0,-9.239064902E-2,9.493330121E-1,3.163425326E-1
8.772315054E0,-9.300149232E-2,9.468895793E-1,3.065689802E-1
8.777211356E0,-9.727742523E-2,9.371160269E-1,2.937411666E-1
8.782107710E0,-1.046075895E-1,9.224557281E-1,2.815242410E-1
8.787004012E0,-1.125486046E-1,9.071845412E-1,2.680855989E-1
8.791900366E0,-1.211004704E-1,8.906916380E-1,2.552577853E-1
8.796796668E0,-1.327065676E-1,8.723662496E-1,2.430408597E-1
8.801693022E0,-1.443126649E-1,8.570950627E-1,2.338781506E-1
8.806589324E0,-1.583621502E-1,8.424347043E-1,2.259371281E-1
8.811485679E0,-1.705790907E-1,8.326611519E-1,2.216611952E-1
8.816381981E0,-1.809635013E-1,8.277744055E-1,2.173852623E-1
8.821278335E0,-1.895153672E-1,8.247201443E-1,2.161635756E-1
8.826174637E0,-1.944021434E-1,8.259418607E-1,2.179961205E-1
8.831089168E0,-1.968455315E-1,8.289960623E-1,2.241045833E-1
8.835967345E0,-1.956238300E-1,8.320503235E-1,2.332672924E-1
8.840863647E0,-1.968455315E-1,8.369371295E-1,2.467059344E-1
8.845760001E0,-1.992889196E-1,8.436564207E-1,2.625879645E-1
8.850674481E0,-2.017323077E-1,8.540408015E-1,2.754157484E-1
8.855552658E0,-2.041756958E-1,8.668686152E-1,2.882435620E-1
8.860448960E0,-2.090624720E-1,8.803072572E-1,3.004604876E-1
8.865345314E0,-2.133384049E-1,8.931350708E-1,3.090123534E-1
8.870259845E0,-2.176143378E-1,9.022977352E-1,3.151208162E-1
8.875137970E0,-2.212794125E-1,9.096279144E-1,3.151208162E-1
8.880052449E0,-2.255553454E-1,9.139038324E-1,3.132883012E-1
8.884930626E0,-2.298312783E-1,9.169580936E-1,3.120665848E-1
8.889845106E0,-2.316638231E-1,9.139038324E-1,3.102340400E-1
8.894723283E0,-2.298312783E-1,9.096279144E-1,3.071798086E-1
8.899637762E0,-2.273878902E-1,9.053519964E-1,3.047364354E-1
8.904515939E0,-2.206685692E-1,9.016869068E-1,3.010713458E-1
8.909430470E0,-2.102841735E-1,8.980218172E-1,2.974062562E-1
8.914308595E0,-2.005106062E-1,8.949676156E-1,2.925194800E-1
8.919204897E0,-1.913478971E-1,8.925241828E-1,2.864110172E-1
8.924101251E0,-1.809635013E-1,8.943567276E-1,2.803025246E-1
8.928997554E0,-1.705790907E-1,8.968001604E-1,2.723615170E-1
8.933893908E0,-1.601946950E-1,9.035194516E-1,2.619771063E-1
8.938793699E0,-1.498102844E-1,9.139038324E-1,2.509818673E-1
8.943686564E0,-1.388150454E-1,9.248991013E-1,2.430408597E-1
8.948582866E0,-1.278197914E-1,9.328401089E-1,2.363215387E-1
8.953479220E0,-1.186570823E-1,9.346726537E-1,2.326564491E-1
8.958375522E0,-1.101052165E-1,9.291750193E-1,2.326564491E-1
8.963271876E0,-1.039967462E-1,9.169580936E-1,2.332672924E-1
8.968168231E0,-1.009425074E-1,9.016869068E-1,2.332672924E-1
8.973064533E0,-9.910997003E-2,8.851940632E-1,2.357106805E-1
8.977960887E0,-9.849911928E-2,8.735879660E-1,2.338781506E-1
8.982857189E0,-1.015533581E-1,8.656468987E-1,2.302130610E-1
8.987753543E0,-1.052184403E-1,8.613709807E-1,2.283805162E-1
8.992649845E0,-1.101052165E-1,8.589276075E-1,2.289913595E-1
8.997546199E0,-1.149920002E-1,8.570950627E-1,2.289913595E-1
9.002442501E0,-1.211004704E-1,8.595384359E-1,2.314347625E-1
9.007338804E0,-1.259872466E-1,8.638143539E-1,2.326564491E-1
9.012235158E0,-1.302631795E-1,8.723662496E-1,2.375432253E-1
9.017131512E0,-1.357607991E-1,8.864157200E-1,2.405974567E-1
9.022027814E0,-1.412584335E-1,9.029086232E-1,2.454842478E-1
9.026924168E0,-1.473668963E-1,9.200123549E-1,2.473167777E-1
9.031820470E0,-1.540862173E-1,9.346726537E-1,2.454842478E-1
9.036716824E0,-1.577513069E-1,9.468895793E-1,2.381540686E-1
9.041613126E0,-1.614163816E-1,9.572740197E-1,2.326564491E-1
9.046509481E0,-1.656923145E-1,9.658258557E-1,2.265479714E-1
9.051405783E0,-1.693574041E-1,9.688801169E-1,2.198286504E-1
9.056302137E0,-1.681357026E-1,9.658258557E-1,2.124984860E-1
9.061198439E0,-1.663031727E-1,9.591065645E-1,2.051683217E-1
9.066094793E0,-1.601946950E-1,9.487221241E-1,1.984490007E-1
9.070991095E0,-1.522536725E-1,9.389485717E-1,1.898971349E-1
9.075887449E0,-1.443126649E-1,9.303967357E-1,1.825669706E-1
9.080783751E0,-1.400367320E-1,9.224557281E-1,1.764585078E-1
9.085680106E0,-1.369825006E-1,9.175689220E-1,1.715717167E-1
9.090594585E0,-1.363716573E-1,9.139038324E-1,1.679066420E-1
9.095472762E0,-1.363716573E-1,9.132930040E-1,1.630198658E-1
9.100387241E0,-1.363716573E-1,9.126821756E-1,1.587439328E-1
9.105265418E0,-1.375933439E-1,9.114604592E-1,1.587439328E-1
9.110179897E0,-1.388150454E-1,9.084062576E-1,1.599656194E-1
9.115058074E0,-1.382041872E-1,9.077953696E-1,1.642415524E-1
9.119954376E0,-1.369825006E-1,9.114604592E-1,1.703500301E-1
9.124850731E0,-1.320957243E-1,9.175689220E-1,1.764585078E-1
9.129765210E0,-1.247655526E-1,9.285641909E-1,1.843995154E-1
9.134643387E0,-1.186570823E-1,9.401702881E-1,1.935622245E-1
9.139557866E0,-1.101052165E-1,9.536089301E-1,2.051683217E-1
9.144436043E0,-1.033858955E-1,9.676584005E-1,2.167744190E-1
9.149332345E0,-9.727742523E-2,9.786536694E-1,2.283805162E-1
9.154228699E0,-8.994726092E-2,9.859838486E-1,2.393757701E-1
9.159125001E0,-8.383878320E-2,9.908705950E-1,2.485384792E-1
9.164021356E0,-7.650861889E-2,9.884272218E-1,2.564795017E-1
9.168935835E0,-6.917845458E-2,9.847621322E-1,2.601445615E-1
9.173814012E0,-6.123743951E-2,9.792644978E-1,2.601445615E-1
9.178710314E0,-5.329642445E-2,9.725452065E-1,2.577011883E-1
9.183606668E0,-4.657710344E-2,9.652150273E-1,2.534252703E-1
9.188506251E0,-4.107947648E-2,9.591065645E-1,2.497601658E-1
9.193399324E0,-3.741439432E-2,9.529981017E-1,2.460950911E-1
9.198295626E0,-3.558185324E-2,9.481112957E-1,2.448733896E-1
9.203191981E0,-3.374931216E-2,9.450570941E-1,2.436517030E-1
9.208088283E0,-3.130592033E-2,9.438353777E-1,2.430408597E-1
9.212984637E0,-2.947338112E-2,9.432245493E-1,2.430408597E-1
9.217880939E0,-2.641914412E-2,9.438353777E-1,2.454842478E-1
9.222777293E0,-2.458660305E-2,9.444462061E-1,2.479276359E-1
9.227673595E0,-2.336490713E-2,9.426136613E-1,2.515927255E-1
9.232569949E0,-2.153236605E-2,9.413920045E-1,2.540360987E-1
9.237466251E0,-2.153236605E-2,9.377269149E-1,2.546469569E-1
9.242362606E0,-2.275406010E-2,9.334509969E-1,2.534252703E-1
9.247258908E0,-2.458660305E-2,9.279533625E-1,2.509818673E-1
9.252155262E0,-3.008422814E-2,9.224557281E-1,2.491493225E-1
9.257051564E0,-3.558185324E-2,9.169580936E-1,2.424300015E-1
9.261947918E0,-4.230117425E-2,9.114604592E-1,2.393757701E-1
9.266844220E0,-4.779879749E-2,9.065737128E-1,2.332672924E-1
9.271740574E0,-5.085303262E-2,9.029086232E-1,2.277696729E-1
9.276636876E0,-5.512896553E-2,9.016869068E-1,2.253262848E-1
9.281533231E0,-5.757235363E-2,9.022977352E-1,2.228828967E-1
9.286429533E0,-5.940489471E-2,9.047411680E-1,2.216611952E-1
9.291344012E0,-5.879404768E-2,9.090170860E-1,2.228828967E-1
9.296222189E0,-5.573981255E-2,9.187906384E-1,2.271588296E-1
9.301118543E0,-5.207473040E-2,9.322292805E-1,2.350998372E-1
9.306014845E0,-4.596625641E-2,9.511655569E-1,2.430408597E-1
9.310911199E0,-4.046862945E-2,9.701017737E-1,2.515927255E-1
9.315807501E0,-3.374931216E-2,9.908705950E-1,2.577011883E-1
9.320722033E0,-2.702999115E-2,1.007974386E0,2.619771063E-1
9.325600158E0,-1.969982497E-2,1.020802140E0,2.631988227E-1
9.330496512E0,-1.359135192E-2,1.026299715E0,2.607554197E-1
9.335392814E0,-1.053711493E-2,1.025078058E0,2.558686435E-1
9.340307345E0,-8.093725890E-3,1.014693618E0,2.454842478E-1
9.345185470E0,-1.053711493E-2,9.969790578E-1,2.314347625E-1
9.350100001E0,-1.481304597E-2,9.725452065E-1,2.149418741E-1
9.354978126E0,-2.092151903E-2,9.438353777E-1,1.972273141E-1
9.359892658E0,-2.886253223E-2,9.169580936E-1,1.807344258E-1
9.364770783E0,-3.619270027E-2,8.931350708E-1,1.666849405E-1
9.369667137E0,-4.352286831E-2,8.741987944E-1,1.556897014E-1
9.374563439E0,-4.902049154E-2,8.583167791E-1,1.489703804E-1
9.379463439E0,-5.635065958E-2,8.473215103E-1,1.470614821E-1
9.384356095E0,-6.429167092E-2,8.381587863E-1,1.476723254E-1
9.389270626E0,-7.162184268E-2,8.308286071E-1,1.526354551E-1
9.394148751E0,-8.017370105E-2,8.234984875E-1,1.599656194E-1
9.399048856E0,-8.994726092E-2,8.180008531E-1,1.679066420E-1
9.403941408E0,-1.003316641E-1,8.167791367E-1,1.776801944E-1
9.408841304E0,-1.107160673E-1,8.173899651E-1,1.874537468E-1
9.413734064E0,-1.217113137E-1,8.204442263E-1,1.984490007E-1
9.418630418E0,-1.314848661E-1,8.247201443E-1,2.118876427E-1
9.423526720E0,-1.394258887E-1,8.289960623E-1,2.265479714E-1
9.428520626E0,-1.467560530E-1,8.326611519E-1,2.424300015E-1
9.433319324E0,-1.522536725E-1,8.320503235E-1,2.589228749E-1
9.438215731E0,-1.571404636E-1,8.302177787E-1,2.741940618E-1
9.443112033E0,-1.601946950E-1,8.253310323E-1,2.882435620E-1
9.448008387E0,-1.608055383E-1,8.253310323E-1,2.986279428E-1
9.452904689E0,-1.601946950E-1,8.265526891E-1,3.059581220E-1
9.457801043E0,-1.601946950E-1,8.332720399E-1,3.090123534E-1
9.462697345E0,-1.614163816E-1,8.406021595E-1,3.096232116E-1
9.467593699E0,-1.638597846E-1,8.497648835E-1,3.065689802E-1
9.472490001E0,-1.669140160E-1,8.570950627E-1,3.004604876E-1
9.477386356E0,-1.705790907E-1,8.607601523E-1,2.967953980E-1
9.482282658E0,-1.748550236E-1,8.577058911E-1,2.888543904E-1
9.487179012E0,-1.754658818E-1,8.485432267E-1,2.790808380E-1
9.492075366E0,-1.760767251E-1,8.326611519E-1,2.668638825E-1
9.496971668E0,-1.766875684E-1,8.088381290E-1,2.540360987E-1
9.501867970E0,-1.760767251E-1,7.813500166E-1,2.424300015E-1
9.506764324E0,-1.736333370E-1,7.520293593E-1,2.308239043E-1
9.511660679E0,-1.687465608E-1,7.208760977E-1,2.192178071E-1
9.516556981E0,-1.608055383E-1,6.964422464E-1,2.063900232E-1
9.521453335E0,-1.528645307E-1,6.775059700E-1,1.941730678E-1
9.526349637E0,-1.430909634E-1,6.652890444E-1,1.825669706E-1
9.531245991E0,-1.333174109E-1,6.622347832E-1,1.758476496E-1
9.536142293E0,-1.241547018E-1,6.646781564E-1,1.721825749E-1
9.541038647E0,-1.101052165E-1,6.787276864E-1,1.703500301E-1
9.545934949E0,-9.361234307E-2,6.982747912E-1,1.672957987E-1
9.550831251E0,-7.711946964E-2,7.178218961E-1,1.642415524E-1
9.555727606E0,-6.245913357E-2,7.330930829E-1,1.575222313E-1
9.560642137E0,-4.963133857E-2,7.422557473E-1,1.501920670E-1
9.565520262E0,-3.863608837E-2,7.508076429E-1,1.397313178E-1
9.570416616E0,-2.886253223E-2,7.563052773E-1,1.275143623E-1
9.575312918E0,-2.092151903E-2,7.618029118E-1,1.152974218E-1
9.580227449E0,-1.481304597E-2,7.666896582E-1,1.036913246E-1
9.585105574E0,-9.315420873E-3,7.697439194E-1,9.330692142E-2
9.590020106E0,-4.428642802E-3,7.660788298E-1,8.170082420E-2
9.594898231E0,-7.635590737E-4,7.587486506E-1,6.887302548E-2
9.599812710E0,4.581354442E-4,7.465317249E-1,5.421269313E-2
9.604690887E0,-3.206948051E-3,7.288171649E-1,3.955236077E-2
9.609605418E0,-1.236965694E-2,7.086591721E-1,2.183778957E-2
9.614483543E0,-2.519745007E-2,6.946097016E-1,5.344913341E-3
9.619383387E0,-4.046862945E-2,6.836144328E-1,-9.315420873E-3
9.624276199E0,-5.512896553E-2,6.793385148E-1,-1.969982497E-2
9.629190731E0,-6.673506647E-2,6.805602312E-1,-2.519745007E-2
9.634068856E0,-7.467607409E-2,6.885012388E-1,-2.641914412E-2
9.638968595E0,-7.650861889E-2,7.001073360E-1,-2.214321308E-2
9.643861512E0,-7.406523079E-2,7.117134333E-1,-1.481304597E-2
9.648757866E0,-6.917845458E-2,7.214869857E-1,-5.650337320E-3
9.653654168E0,-6.551336497E-2,7.294279933E-1,4.734066315E-3
9.658550522E0,-6.368082762E-2,7.343147397E-1,1.023169141E-2
9.663446824E0,-6.306997687E-2,7.343147397E-1,1.084253844E-2
9.668343179E0,-6.551336497E-2,7.300388217E-1,7.788302377E-3
9.673239481E0,-6.856760383E-2,7.233195305E-1,4.581354442E-4
9.678135835E0,-7.284353673E-2,7.135459781E-1,-1.298050396E-2
9.683032189E0,-7.711946964E-2,7.007181644E-1,-2.947338112E-2
9.687931981E0,-8.444963396E-2,6.872795224E-1,-4.779879749E-2
9.692824845E0,-9.239064902E-2,6.695649624E-1,-6.490252167E-2
9.697721147E0,-1.015533581E-1,6.500178576E-1,-8.078455180E-2
9.702617501E0,-1.094943732E-1,6.310815811E-1,-9.422318637E-2
9.707513804E0,-1.198787764E-1,6.078693867E-1,-1.058292910E-1
9.712410158E0,-1.296523362E-1,5.852680206E-1,-1.143811494E-1
9.717306460E0,-1.430909634E-1,5.608341694E-1,-1.204896197E-1
9.722202814E0,-1.571404636E-1,5.388436317E-1,-1.272089481E-1
9.727099116E0,-1.760767251E-1,5.211290717E-1,-1.339282542E-1
9.731995470E0,-1.950129867E-1,5.083012581E-1,-1.412584335E-1
9.736891772E0,-2.151709497E-1,5.003602505E-1,-1.498102844E-1
9.741788126E0,-2.353289127E-1,4.960843325E-1,-1.565296054E-1
9.746684429E0,-2.536543310E-1,4.985277057E-1,-1.595838517E-1
9.751580783E0,-2.707580328E-1,5.076904297E-1,-1.608055383E-1
9.756477085E0,-2.854183912E-1,5.205182433E-1,-1.595838517E-1
9.761373439E0,-3.006895781E-1,5.370110869E-1,-1.577513069E-1
9.766269741E0,-3.153499067E-1,5.553365350E-1,-1.528645307E-1
9.771166095E0,-3.281776905E-1,5.754944682E-1,-1.455343664E-1
9.776062449E0,-3.397837877E-1,5.932090282E-1,-1.327065676E-1
9.780958751E0,-3.471139669E-1,6.072585583E-1,-1.143811494E-1
9.785855106E0,-3.513898849E-1,6.151995659E-1,-9.300149232E-2
9.790751408E0,-3.513898849E-1,6.231405735E-1,-7.162184268E-2
9.795647762E0,-3.471139669E-1,6.304707527E-1,-5.085303262E-2
9.800544064E0,-3.385621011E-1,6.371900439E-1,-3.497100621E-2
9.805440418E0,-3.287885487E-1,6.432985067E-1,-2.580829710E-2
9.810354949E0,-3.177932799E-1,6.481853127E-1,-2.214321308E-2
9.815233074E0,-3.055763543E-1,6.524612308E-1,-2.214321308E-2
9.820147033E0,-2.939702570E-1,6.549046040E-1,-2.580829710E-2
