"Time (s)","Linear Acceleration x (m/s^2)","Linear Acceleration y (m/s^2)","Linear Acceleration z (m/s^2)"
9.601593900E-2,0.000000000E0,0.000000000E0,0.000000000E0
1.009122930E-1,3.934979439E-3,1.281642914E-2,-3.173637390E-2
1.058270330E-1,1.764988899E-2,1.437282562E-2,-4.889178276E-2
1.107048970E-1,-5.598813295E-3,2.434635162E-2,2.420878410E-2
1.156011990E-1,-2.463546395E-2,1.462459564E-2,8.681344986E-2
1.204975540E-1,-2.381151915E-2,1.896095276E-2,8.529233932E-2
1.254389600E-1,-7.332488894E-2,1.691150665E-2,5.415844917E-2
1.303350540E-1,-9.337571263E-2,3.622913361E-2,4.130601883E-2
1.351865120E-1,-8.318209648E-2,1.120376587E-2,6.532573700E-2
1.400828140E-1,-3.204354644E-2,-3.508281708E-2,4.534244537E-2
1.449791160E-1,7.624179125E-3,-8.636760712E-2,-3.719258308E-2
1.498935950E-1,-1.894086599E-3,-7.930183411E-2,-1.502625942E-1
1.547717720E-1,2.481842041E-2,-8.442783356E-2,-2.334666252E-1
1.596680740E-1,1.660192013E-2,-1.142263412E-1,-2.140522003E-1
1.645643760E-1,1.592531800E-2,-6.236934662E-2,-8.695578575E-2
1.694789080E-1,-6.988435984E-3,-2.101421356E-2,2.363371849E-2
1.743570330E-1,-1.502755284E-2,2.436542511E-2,1.362037659E-2
1.792572410E-1,-4.984074831E-2,5.355834961E-2,-6.074500084E-2
1.841496890E-1,-6.493988633E-2,7.216930389E-2,-8.099627495E-2
1.890641680E-1,-2.490499616E-2,5.123329163E-2,-2.715373039E-2
1.939422930E-1,3.386086226E-2,8.490562439E-3,2.220320702E-2
1.988385950E-1,6.295585632E-2,2.013492584E-2,1.951169968E-2
2.037349490E-1,2.488762140E-2,6.557273865E-2,1.266121864E-2
2.086312510E-1,-2.045354247E-2,1.022958755E-1,4.302048683E-2
2.135275540E-1,1.888680458E-2,3.884410858E-2,1.528656483E-1
2.184239080E-1,5.679428577E-2,-4.741001129E-2,2.770938873E-1
2.233202100E-1,5.153104663E-2,-4.511547089E-2,3.391206264E-1
2.282165120E-1,-2.356699109E-2,5.879211426E-2,3.203957081E-1
2.331128660E-1,-5.801022053E-2,1.223468781E-1,3.509473801E-1
2.381058870E-1,-5.805981159E-2,1.538524628E-1,4.504506588E-1
2.429054180E-1,-1.792186499E-2,1.798553467E-1,5.382168293E-1
2.478017720E-1,-4.324415326E-2,2.213354111E-1,5.548331738E-1
2.526981260E-1,-2.999454737E-2,2.361116409E-1,5.140361786E-1
2.575944290E-1,-2.558338642E-2,2.180128098E-1,4.569044113E-1
2.624907310E-1,-1.570609212E-2,1.911897659E-1,4.535520077E-1
2.673870850E-1,-4.441758990E-2,1.465053558E-1,4.163515568E-1
2.722833870E-1,-5.908757448E-2,1.007165909E-1,3.016977310E-1
2.771796890E-1,-5.971163511E-2,2.821540833E-2,1.251327991E-1
2.820760430E-1,-1.093699932E-1,-3.304386139E-2,3.942584991E-2
2.869723450E-1,-1.015712917E-1,-1.184082031E-1,2.572846413E-2
2.918686470E-1,-8.172419667E-2,-2.367258072E-1,1.909708977E-2
2.967649490E-1,-8.243739605E-2,-3.639326096E-1,-6.265306473E-2
3.016613040E-1,-6.078290939E-2,-4.321222305E-1,-1.759092808E-1
3.065576060E-1,-3.100752831E-2,-4.333419800E-1,-2.546117306E-1
3.114539080E-1,-7.045745850E-3,-4.158878326E-1,-3.558335304E-1
3.163502620E-1,1.611980796E-2,-4.059209824E-1,-4.627504349E-1
3.212465640E-1,1.287585497E-2,-3.822126389E-1,-5.119709969E-1
3.261428660E-1,1.404646039E-2,-3.637924194E-1,-4.999513626E-1
3.310392200E-1,9.969890118E-3,-3.716135025E-1,-4.936254025E-1
3.359355220E-1,-2.992075682E-2,-3.699932098E-1,-5.560741425E-1
3.408318240E-1,-1.030139327E-1,-3.520936966E-1,-5.215308666E-1
3.457281790E-1,-1.292346418E-1,-3.440513611E-1,-3.635387421E-1
3.506244810E-1,-1.733850092E-1,-3.715238571E-1,-2.157053947E-1
3.555207830E-1,-2.214633077E-1,-3.469285965E-1,-1.434700489E-1
3.604170850E-1,-2.762095034E-1,-3.182163239E-1,-1.640999317E-1
3.653134390E-1,-3.048908710E-1,-2.666492462E-1,-2.405679226E-1
3.702281790E-1,-3.010332584E-1,-2.420511246E-1,-2.588126659E-1
3.751060430E-1,-3.479580283E-1,-2.393550873E-1,-6.879544258E-2
3.800023970E-1,-3.605401516E-1,-2.819280624E-1,4.609770775E-1
3.848986990E-1,-3.872284591E-1,-2.962284088E-1,1.057409048E0
3.898131790E-1,-4.802074134E-1,-2.592897415E-1,1.449324608E0
3.946913560E-1,-5.161168575E-1,-3.014879227E-1,1.644990444E0
3.996058350E-1,-4.342297912E-1,-3.674278259E-1,1.626430988E0
4.044839600E-1,-3.343989849E-1,-4.306926727E-1,1.419928789E0
4.093803140E-1,-2.088900805E-1,-4.912824631E-1,1.148212433E0
4.142766160E-1,-2.863204479E-2,-5.631752014E-1,7.476131916E-1
4.191729180E-1,1.028856635E-1,-6.365394592E-1,1.977057457E-1
4.240692720E-1,1.897477210E-1,-6.639547348E-1,-3.801534176E-1
4.289691680E-1,3.161067367E-1,-7.379598618E-1,-8.448476791E-1
4.338618760E-1,4.491867721E-1,-7.539472580E-1,-1.234159946E0
4.387617720E-1,6.040389538E-1,-8.071289062E-1,-1.544805050E0
4.436545330E-1,8.613188267E-1,-9.229259491E-1,-1.733447313E0
4.485508350E-1,1.085338712E0,-1.029638290E0,-1.802059054E0
4.534471370E-1,1.108783722E0,-1.073170662E0,-1.813471198E0
4.583434910E-1,9.786883593E-1,-9.859752655E-1,-1.815251231E0
4.632397930E-1,9.987790585E-1,-8.501596451E-1,-1.582540989E0
4.681360950E-1,1.024508834E0,-6.405458450E-1,-1.093612909E0
4.730324490E-1,8.914222717E-1,-3.795623779E-1,-4.187861681E-1
4.779287510E-1,7.419798970E-1,-1.790618896E-1,1.831142902E-1
4.828250540E-1,6.838531494E-1,-5.013847351E-2,6.238832474E-1
4.877214080E-1,5.539564490E-1,1.049365997E-1,1.135635376E0
4.926177100E-1,3.425096571E-1,3.377866745E-1,1.647233248E0
4.975140120E-1,4.981236160E-2,6.308689117E-1,1.996049166E0
5.024103140E-1,-1.414636970E-1,7.918958664E-1,2.283581018E0
5.073066680E-1,-2.330063432E-1,8.106060028E-1,2.728336096E0
5.122029700E-1,-4.421699941E-1,9.322767258E-1,3.660206556E0
5.170992720E-1,-3.416029811E-1,8.906383514E-1,4.408882141E0
5.219956260E-1,-2.966401279E-1,7.965946198E-1,4.443177223E0
5.268919290E-1,-3.990365267E-1,8.025665283E-1,4.103452682E0
5.317882310E-1,-5.048333406E-1,8.509597778E-1,3.607983828E0
5.366845850E-1,-3.102100790E-1,9.533376694E-1,3.481035471E0
5.415808870E-1,9.050889015E-1,2.209396362E-1,5.199382782E0
5.464771890E-1,1.311704159E0,-3.877487183E-1,5.894255161E0
5.513734910E-1,8.678823709E-1,-6.323347092E-1,5.660902023E0
5.562698450E-1,2.625131309E-1,-6.610021591E-1,5.221339226E0
5.611661470E-1,1.808079779E-1,-6.252202988E-1,4.859440327E0
5.660624490E-1,1.727626324E-1,-4.900703430E-1,4.448657036E0
5.709588040E-1,-3.413681388E-1,-1.308422089E-1,3.818528891E0
5.758551060E-1,-8.955352902E-1,2.630386353E-1,3.362404108E0
5.807514080E-1,-1.136155963E0,4.636049271E-1,3.143176317E0
5.856477620E-1,-1.065267444E0,4.775142670E-1,2.539901972E0
5.905622410E-1,-1.158971548E0,5.201368332E-1,1.216535568E0
5.954403660E-1,-1.476581335E0,7.220649719E-1,-1.699912548E-1
6.003367200E-1,-1.871374369E0,9.111175537E-1,-1.261379957E0
6.052330220E-1,-1.894084573E0,5.255794525E-1,-1.760136843E0
6.101293240E-1,-1.413272262E0,4.103689194E-1,-2.516846418E0
6.150256790E-1,-8.487426043E-1,5.178461075E-1,-2.739771843E0
6.199219810E-1,-3.015365303E-1,6.798896790E-1,-2.880119801E0
6.248182830E-1,-3.310966492E-1,9.126043320E-1,-2.841589451E0
6.297330740E-1,-7.788128853E-1,1.253430367E0,-3.221823215E0
6.346109390E-1,-1.592914462E0,1.820307732E0,-3.980213404E0
6.395254700E-1,-2.561100006E0,2.523628235E0,-5.208864689E0
6.444035430E-1,-2.205547810E0,2.616858482E0,-3.489836216E0
6.493180740E-1,-1.800945401E0,2.193111420E0,-3.338349819E0
6.541961990E-1,-1.488880038E0,1.714735985E0,-2.625502586E0
6.590925010E-1,-1.359503746E0,1.497786522E0,-1.792606950E0
6.639888560E-1,-1.014712214E0,1.319162369E0,-1.051295042E0
6.688851580E-1,-5.505935550E-1,9.671134949E-1,-1.102958918E-1
6.737814600E-1,-1.716712564E-1,4.595489502E-1,8.966693878E-1
6.786778140E-1,1.852297485E-1,-1.359987259E-1,1.965470195E0
6.835741160E-1,5.161485672E-1,-6.646823883E-1,2.975481033E0
6.884738560E-1,5.385898948E-1,-9.965801239E-1,3.623784065E0
6.933667720E-1,3.687725663E-1,-1.150006294E0,3.832979679E0
6.982630740E-1,2.480066568E-1,-1.271301270E0,3.739702463E0
7.031593760E-1,-9.013724327E-2,-1.272885323E0,3.320269585E0
7.080556790E-1,-4.092654586E-1,-1.205649376E0,2.831558704E0
7.129520330E-1,-5.361764431E-1,-1.110679626E0,2.642809153E0
7.178483350E-1,-3.455612659E-1,-9.644804001E-1,1.796841145E0
7.227446370E-1,-1.763979793E-1,-1.002406120E0,3.333437443E-1
7.276409910E-1,-4.934567958E-2,-8.403978348E-1,-6.866903305E-1
7.325372930E-1,-7.337256521E-2,-3.088970184E-1,-9.579814672E-1
7.374335950E-1,-2.421068251E-1,2.282028198E-1,-1.417568326E0
7.423299490E-1,-3.044377267E-1,4.620466232E-1,-1.992849350E0
7.472262510E-1,-4.486732483E-1,4.756546021E-1,-2.369125366E0
7.521225540E-1,-5.601527095E-1,3.204717636E-1,-2.286115170E0
7.570188560E-1,-5.891658068E-1,1.236410141E-1,-1.989333987E0
7.619152100E-1,-6.457333565E-1,-7.661819458E-2,-1.532163143E0
7.668115120E-1,-7.583862543E-1,-1.733875275E-1,-1.022396684E0
7.717078140E-1,-1.063137412E0,-7.943534851E-2,-7.005059719E-1
7.766041680E-1,-1.431418896E0,1.968727112E-1,-5.227656364E-1
7.815004700E-1,-1.516392708E0,3.953485489E-1,-5.482048988E-1
7.863967720E-1,-1.456198454E0,5.000495911E-1,-4.811503887E-1
7.913113040E-1,-1.552487254E0,5.852222443E-1,-9.853887558E-2
7.961894290E-1,-1.668191552E0,7.265863419E-1,7.771804333E-1
8.010857310E-1,-1.568572640E0,8.735074997E-1,1.622868299E0
8.059820850E-1,-1.367426634E0,1.016273499E0,1.977848291E0
8.108783870E-1,-1.224816442E0,1.128852844E0,1.666652203E0
8.157746890E-1,-1.433399439E0,1.356712341E0,1.009047031E0
8.206710430E-1,-1.589469790E0,1.549353600E0,3.611483574E-1
8.255673450E-1,-1.538992643E0,1.588048935E0,-2.974128723E-2
8.304818760E-1,-1.406683445E0,1.487936974E0,-2.314531803E-1
8.353599490E-1,-1.275850296E0,1.325947762E0,-5.041384697E-1
8.402744810E-1,-1.246202707E0,1.280953407E0,-8.714184761E-1
8.451526060E-1,-1.145131469E0,1.252350807E0,-1.125778437E0
8.500489080E-1,-9.224507213E-1,1.137845993E0,-1.377511263E0
8.549452620E-1,-8.013701439E-1,9.831342697E-1,-1.676155567E0
8.598597410E-1,-7.518815994E-1,7.978534698E-1,-1.792470098E0
8.647378660E-1,-6.861058474E-1,5.725755692E-1,-1.781673074E0
8.696523450E-1,-5.221765041E-1,3.122329712E-1,-1.677478790E0
8.745305220E-1,-4.207714200E-1,-1.140689850E-2,-1.485334396E0
8.794450010E-1,-3.429709375E-1,-3.312759399E-1,-1.258349061E0
8.843231260E-1,-3.042562604E-1,-6.757545471E-1,-1.044940710E0
8.892376580E-1,-2.303242981E-1,-1.037487030E0,-7.905975580E-1
8.941157830E-1,-3.519928455E-2,-1.394792557E0,-4.414234161E-1
8.990120850E-1,1.639474928E-1,-1.712020397E0,-7.179236412E-2
9.039084390E-1,3.533289433E-1,-1.948944092E0,2.491247654E-1
9.088047410E-1,6.215988398E-1,-2.096491337E0,5.215537548E-1
9.137010430E-1,7.418594956E-1,-2.143209934E0,7.430872917E-1
9.185973970E-1,7.928739190E-1,-2.072952271E0,9.113292694E-1
9.234936990E-1,7.145797014E-1,-1.855437756E0,9.931490421E-1
9.283900010E-1,5.162112713E-1,-1.498681545E0,9.890983105E-1
9.332863040E-1,2.757383883E-1,-1.079704285E0,9.331331253E-1
9.382801060E-1,3.551408648E-2,-6.679878235E-1,8.830597401E-1
9.430789080E-1,-2.602527738E-1,-2.585153580E-1,8.875553608E-1
9.479753140E-1,-5.158245564E-1,1.580181122E-1,8.924698830E-1
9.528716160E-1,-4.256143570E-1,4.912023544E-1,8.710718155E-1
9.577679180E-1,-3.134589195E-1,6.534118652E-1,8.876953125E-1
9.626642200E-1,-1.847373247E-1,7.551040649E-1,9.396135807E-1
9.675605740E-1,-6.843709946E-2,7.918834686E-1,9.359121323E-1
9.724568760E-1,2.337848544E-1,9.188442230E-1,9.080228806E-1
9.773531790E-1,4.931703806E-1,1.035406113E0,7.780213356E-1
9.822495330E-1,4.890300333E-1,1.136778831E0,4.921829700E-1
9.871458350E-1,1.225678325E-1,1.291965485E0,1.851480007E-1
9.920421370E-1,-2.829343081E-1,1.483925819E0,1.454377174E-2
9.969384390E-1,-4.410954714E-1,1.550597191E0,-1.299109459E-1
1.001834793E0,-4.481013417E-1,1.414258003E0,-1.822195053E-1
1.006731095E0,-5.785064697E-1,1.133414268E0,-2.415449619E-1
1.011627397E0,-3.973500729E-1,7.305030823E-1,-2.062189579E-1
1.016523751E0,-3.793066740E-2,3.730564117E-1,-8.193969727E-2
1.021420054E0,1.521862745E-1,1.091861725E-2,5.912089348E-2
1.026316356E0,2.725764513E-1,-2.938938141E-1,2.762317657E-1
1.031212710E0,3.576499224E-1,-4.487819672E-1,4.284541607E-1
1.036109012E0,1.860666275E-1,-4.521207809E-1,5.302278996E-1
1.041005314E0,6.379956007E-2,-4.976062775E-1,5.912334919E-1
1.045901668E0,-3.602105379E-2,-5.397825241E-1,5.972976685E-1
1.050797970E0,-1.545169950E-1,-5.144987106E-1,7.873651981E-1
1.055694272E0,-3.235009313E-1,-4.271106720E-1,1.359038115E0
1.060608804E0,-4.340816736E-1,-2.876548767E-1,1.963239670E0
1.065486929E0,-3.177612424E-1,-1.964025497E-1,2.116061687E0
1.070401408E0,-6.339812279E-2,-1.839761734E-1,1.764684916E0
1.075279533E0,3.996205330E-2,-1.165828705E-1,1.290335894E0
1.080175887E0,-1.263239980E-1,8.154201508E-2,9.349722862E-1
1.085072189E0,-4.091401100E-1,3.666534424E-1,6.558742523E-1
1.089986668E0,-5.632049441E-1,6.381521225E-1,4.720582962E-1
1.094864845E0,-6.088182330E-1,9.293823242E-1,4.142045975E-1
1.099779324E0,-5.301320553E-1,1.175849915E0,3.485417366E-1
1.104657449E0,-5.092331767E-1,1.330121994E0,2.559559345E-1
1.109571981E0,-6.632924676E-1,1.373502731E0,2.868363857E-1
1.114450106E0,-7.724350095E-1,1.306530952E0,3.690557480E-1
1.119349949E0,-7.338669896E-1,1.127363205E0,4.810678959E-1
1.124242710E0,-6.211311817E-1,8.367652893E-1,4.457256794E-1
1.129139064E0,-5.456162095E-1,5.451288223E-1,1.627943516E-1
1.134035366E0,-6.946996450E-1,2.646017075E-1,-2.387429476E-1
1.138935158E0,-7.756519318E-1,9.775543213E-2,-5.467269421E-1
1.143828022E0,-2.841882706E-1,-1.107549667E-1,-5.946761370E-1
1.148724324E0,-8.238756657E-2,-3.249902725E-1,-5.337476730E-1
1.153620626E0,-1.383405924E-2,-5.115499496E-1,-5.265827179E-1
1.158516929E0,-4.127681255E-3,-5.681009293E-1,-5.514942408E-1
1.163413283E0,9.014457464E-2,-5.214986801E-1,-5.437655449E-1
1.168309585E0,2.186288238E-1,-3.913087845E-1,-4.937886000E-1
1.173205887E0,2.065834105E-1,-2.613935471E-1,-4.301851988E-1
1.178102241E0,5.133080482E-2,-7.944107056E-2,-3.908084631E-1
1.182998543E0,-3.030234575E-2,6.125831604E-2,-3.680771589E-1
1.187898126E0,-1.611462831E-1,1.917800903E-1,-3.283647299E-1
1.192791199E0,-3.157820106E-1,3.001909256E-1,-2.121990919E-1
1.197687501E0,-4.450424910E-1,3.483428955E-1,6.368470192E-2
1.202583804E0,-5.144529939E-1,3.792343140E-1,5.489900112E-1
1.207480106E0,-7.543076277E-1,4.666404724E-1,1.002472401E0
1.212376460E0,-9.713355303E-1,4.624433517E-1,1.276670933E0
1.217272762E0,-9.938974380E-1,3.432035446E-1,1.281815529E0
1.222169064E0,-1.008520126E0,3.192481995E-1,1.226263285E0
1.227065418E0,-8.647629619E-1,5.499210358E-1,1.267542362E0
1.231961720E0,-6.846927404E-1,7.289943695E-1,1.245723248E0
1.236858022E0,-7.570382953E-1,7.421321869E-1,1.204694152E0
1.241754376E0,-8.352361321E-1,5.804424286E-1,1.078220010E0
1.246650679E0,-7.637364268E-1,3.759222031E-1,8.305748701E-1
1.251546981E0,-6.831032634E-1,2.362718582E-1,5.782874823E-1
1.256443283E0,-6.234142184E-1,1.328039169E-1,3.637745380E-1
1.261339637E0,-5.834370255E-1,1.541328430E-2,2.344633341E-1
1.266235939E0,-5.975223780E-1,-7.523727417E-2,8.997642994E-2
1.271132241E0,-6.117171049E-1,-1.748876572E-1,-7.231318951E-2
1.276028595E0,-4.865147471E-1,-3.357257843E-1,-2.436813116E-1
1.280924897E0,-3.383908272E-1,-5.238971710E-1,-4.418580532E-1
1.285821199E0,-3.196716905E-1,-6.318264008E-1,-5.843355656E-1
1.290735991E0,-3.872340918E-1,-6.454238892E-1,-6.913452148E-1
1.295613856E0,-4.195381999E-1,-5.506277084E-1,-7.713290453E-1
1.300510158E0,-2.313207388E-1,-4.003353119E-1,-7.913520336E-1
1.305406460E0,-1.388831735E-1,-2.162923813E-1,-8.231321573E-1
1.310320939E0,-1.499983668E-1,-2.740383148E-2,-8.589500189E-1
1.315199116E0,-4.304569960E-2,2.188396454E-1,-1.340501070E0
1.320113595E0,3.710735440E-1,2.196435928E-1,-2.980169296E0
1.324991772E0,5.547021031E-1,9.738636017E-2,-3.108528614E0
1.329888074E0,6.087408662E-1,1.672744751E-2,-2.728602648E0
1.334784376E0,5.950551033E-1,-4.668903351E-2,-2.362751961E0
1.339698856E0,3.172778487E-1,-5.270671844E-2,-1.742347836E0
1.344577033E0,1.376944780E-2,-1.234741211E-1,-1.000584483E0
1.349473335E0,4.444897175E-2,-1.921424866E-1,-1.441743374E-1
1.354369637E0,-2.185863256E-2,-1.635093689E-1,4.456495047E-1
1.359265991E0,-3.334661126E-1,-1.596879959E-1,6.533123255E-1
1.364162293E0,-5.966868997E-1,-1.496047974E-1,6.590098143E-1
1.369058595E0,-8.568669558E-1,-4.884281158E-1,2.787060738E-1
1.373954897E0,-2.461997867E-1,-7.092790604E-1,-3.426134586E-1
1.378851251E0,5.437252522E-1,4.403781891E-2,-1.218106270E0
1.383747554E0,-4.388064146E-2,8.017778397E-1,-1.907655120E0
1.388647189E0,-2.037591934E-1,1.065033913E0,-1.415137649E0
1.393540210E0,1.127628088E-1,1.000153542E0,-1.764528155E0
1.398436512E0,5.273359418E-1,9.614105225E-1,-2.008265972E0
1.403332814E0,7.364287376E-1,9.772109985E-1,-1.547433376E0
1.408229168E0,2.963987589E-1,1.273231506E0,4.246404171E-1
1.413125470E0,-1.041752100E0,1.742403984E0,5.173450947E0
1.418021772E0,-1.504752398E0,2.174197197E0,7.996469975E0
1.422918074E0,-1.011459708E0,2.687240601E0,4.682582855E0
1.427814429E0,-1.748268604E-1,2.011552811E0,-1.070400476E0
1.432710731E0,6.075108051E-1,9.153261185E-1,-3.325403214E0
1.437607033E0,1.261898279E0,2.707109451E-1,-3.783474445E0
1.442503387E0,1.506462097E0,-2.054576874E-1,-3.958603382E0
1.447399689E0,1.264467597E0,-4.185037613E-1,-3.698801041E0
1.452295991E0,1.064762115E0,-3.648605347E-1,-2.968640327E0
1.457192293E0,7.176327109E-1,-3.487253189E-1,-2.102394342E0
1.462088647E0,2.597009242E-1,-3.702640533E-1,-1.146883607E0
1.466984949E0,4.271560907E-2,-3.603963852E-1,-1.489546299E-1
1.471881251E0,-1.164168119E-2,-2.717294693E-1,5.489236116E-1
1.476777606E0,-2.295736969E-1,-1.095914841E-1,9.280557632E-1
1.481673908E0,-4.229503274E-1,1.808834076E-2,1.330257058E0
1.486570210E0,-5.039299726E-1,1.470441818E-1,1.477453589E0
1.491466512E0,-4.822971225E-1,1.723184586E-1,1.172464132E0
1.496362866E0,-3.960275054E-1,1.611709595E-1,8.625229597E-1
1.501259168E0,-2.782406807E-1,1.019287109E-1,6.948950291E-1
1.506155470E0,-1.068613529E-1,-1.219587326E-1,4.604500532E-1
1.511051824E0,-4.139985144E-2,-3.117399216E-1,4.161486626E-1
1.515948126E0,-3.113521636E-2,-2.669954300E-1,3.577427864E-1
1.520862866E0,1.849915832E-1,-4.799270630E-1,2.727909088E-1
1.525740783E0,1.099890918E-1,-5.321140289E-1,5.168048143E-1
1.530637085E0,-1.119661629E-1,-3.094911575E-1,1.670358181E-1
1.535533387E0,4.899875522E-1,-7.196006775E-1,-5.982648134E-1
1.540429689E0,3.549521267E-1,-6.127614975E-1,-3.788019419E-1
1.545326043E0,1.983834207E-1,-4.155006409E-1,-4.993413687E-1
1.550222345E0,9.387211502E-2,-3.071804047E-1,-2.804726362E-1
1.555118647E0,-1.361156255E-1,-3.091516495E-1,4.949622154E-1
1.560033179E0,3.594315425E-2,-2.755641937E-1,1.095432043E0
1.564911304E0,-7.650317252E-2,-1.316070557E-2,8.312654495E-1
1.569807606E0,-3.562562466E-1,1.290302277E-1,2.176369429E-1
1.574703908E0,-5.502551794E-1,3.422956467E-1,2.269600630E-1
1.579618439E0,-4.580389857E-1,4.165134430E-1,-1.456834078E-1
1.584496564E0,-2.035595477E-1,2.258081436E-1,-3.487964869E-1
1.589411043E0,-1.092172414E-1,3.118515015E-2,-3.331519365E-1
1.594289220E0,-4.007145762E-2,-8.378028870E-2,-3.146272898E-1
1.599185522E0,7.348138094E-2,-1.599187851E-1,-1.907156706E-1
1.604081824E0,1.182392240E-2,-2.689371109E-1,-1.360476017E-1
1.608978126E0,-7.178385556E-2,-3.105449677E-1,-1.263235807E-1
1.613874481E0,-8.202671260E-2,-2.897768021E-1,-1.348202229E-1
1.618770783E0,-1.555118412E-1,-1.758718491E-1,-1.490768194E-1
1.623667085E0,-2.999265790E-1,-1.171216965E-1,-3.453567028E-1
1.628563439E0,-4.152474403E-1,-9.195327759E-2,-3.597247601E-1
1.633459741E0,-3.799702525E-1,-1.075258255E-1,-9.891152382E-2
1.638356043E0,-3.858400583E-1,-8.978366852E-2,6.434118748E-2
1.643252397E0,-5.214085579E-1,-5.420684814E-3,1.423184872E-1
1.648148699E0,-5.166961551E-1,8.090305328E-2,1.545021534E-1
1.653045001E0,-4.507825971E-1,6.895828247E-2,9.385156631E-2
1.657941304E0,-3.715763390E-1,1.872348785E-2,7.273721695E-2
1.662837658E0,-4.054397345E-1,-2.875328064E-3,1.603674889E-1
1.667733960E0,-4.564055800E-1,-1.498317719E-2,1.628214121E-1
1.672630262E0,-3.761213720E-1,3.734874725E-2,2.243578434E-2
1.677526564E0,-2.196630538E-1,3.228855133E-2,-1.249243021E-1
1.682422918E0,-1.471183747E-1,-4.665088654E-2,-2.652535439E-1
1.687319220E0,-1.224352866E-1,-2.740764618E-2,-3.221348524E-1
1.692215522E0,-8.811414242E-2,6.582832336E-2,-3.123749495E-1
1.697111876E0,-8.705055714E-2,1.540908813E-1,-3.700227737E-1
1.702008179E0,-7.399910688E-2,2.088117599E-1,-4.666217566E-1
1.706904481E0,2.253055573E-2,2.253961563E-1,-6.025588512E-1
1.711800783E0,1.472962797E-1,2.016067505E-1,-6.490572691E-1
1.716697137E0,2.737708986E-1,1.614189148E-1,-5.656507015E-1
1.721593439E0,3.420105875E-1,2.433004379E-1,-4.813649654E-1
1.726489741E0,3.686217368E-1,3.728904724E-1,-5.846794844E-1
1.731404272E0,4.441079497E-1,3.877410889E-1,-6.863757372E-1
1.736282397E0,4.202101529E-1,3.024625778E-1,-6.475547552E-1
1.741178699E0,3.304075003E-1,3.011131287E-1,-5.327126980E-1
1.746075054E0,1.893767416E-1,3.499736786E-1,-4.443491697E-1
1.750971356E0,1.338188648E-1,3.104267120E-1,-3.154765368E-1
1.755867658E0,2.785704136E-1,2.400398254E-1,-4.925867319E-1
1.760763960E0,2.270901203E-1,-1.428575516E-1,-1.937428713E-1
1.765660314E0,1.899520159E-1,-4.292392731E-1,3.486585617E-1
1.770556616E0,1.240364909E-1,-3.926191330E-1,6.780464649E-1
1.775452918E0,3.183233738E-2,-3.848190308E-1,7.208489180E-1
1.780349272E0,-1.009911299E-2,-5.274963379E-1,6.425513029E-1
1.785245574E0,2.233999968E-2,-7.199630737E-1,6.128765345E-1
1.790160054E0,1.411663890E-1,-8.212327957E-1,4.453407526E-1
1.795038179E0,2.156171799E-1,-7.575597763E-1,1.829261780E-1
1.799934533E0,2.530474067E-1,-7.036428452E-1,-5.748283863E-2
1.804830835E0,3.924208283E-1,-6.021518707E-1,-2.451640368E-1
1.809745314E0,2.892727852E-1,-7.492380142E-1,-1.319063902E-1
1.814623491E0,-8.367478848E-3,-7.359733582E-1,-8.604502678E-2
1.819537970E0,-1.493921876E-1,-5.293684006E-1,2.870559692E-2
1.824416095E0,-1.123801470E-1,-4.857559204E-1,5.487883091E-2
1.829312397E0,-5.782651901E-2,-6.524314880E-1,1.002194881E-1
1.834208751E0,6.444823742E-2,-6.946010590E-1,8.359944820E-2
1.839105054E0,7.755595446E-2,-6.962022781E-1,1.199946404E-1
1.844001356E0,3.166192770E-2,-6.525382996E-1,8.258581161E-2
1.848897710E0,-8.300977945E-2,-5.517902374E-1,9.108614922E-2
1.853794012E0,-8.255136013E-2,-2.866439819E-1,2.104544640E-2
1.858690314E0,-2.350513339E-1,-2.968664169E-1,2.120007277E-1
1.863586668E0,-4.140599668E-1,-3.572845459E-1,5.441970825E-1
1.868482970E0,-5.598804951E-1,-3.197393417E-1,8.644933701E-1
1.873379272E0,-5.722271800E-1,-2.608718872E-1,9.841028452E-1
1.878275626E0,-5.418238044E-1,-2.070131302E-1,9.583535194E-1
1.883171929E0,-5.402855277E-1,-2.225780487E-1,8.422898054E-1
1.888068231E0,-4.981487095E-1,-2.739267349E-1,7.338309288E-1
1.892964533E0,-4.794854522E-1,-3.299627304E-1,6.185957193E-1
1.897860887E0,-4.384494424E-1,-3.118953705E-1,4.797339439E-1
1.902757189E0,-3.820617199E-1,-2.485532761E-1,2.836307287E-1
1.907653491E0,-3.199337125E-1,-1.447343826E-1,8.473443985E-2
1.912549845E0,-3.312197328E-1,-1.239013672E-2,-8.872449398E-2
1.917446147E0,-2.988680601E-1,8.157730103E-2,-1.151325703E-1
1.922342449E0,-3.521406054E-1,1.468105316E-1,-1.618993282E-2
1.927238804E0,-3.880907297E-1,1.904964447E-1,6.244695187E-2
1.932135106E0,-4.021576047E-1,1.577291489E-1,-1.728081703E-2
1.937031408E0,-3.799104393E-1,8.447933197E-2,-9.715211391E-2
1.941927762E0,-3.267051578E-1,1.370811462E-2,-1.568990946E-1
1.946824064E0,-3.470888734E-1,-8.979892731E-2,-9.949994087E-2
1.951720366E0,-3.169817924E-1,-5.726623535E-2,-2.175785303E-1
1.956616668E0,-2.532078624E-1,-2.992630005E-2,-4.123140574E-1
1.961513022E0,-1.797199845E-1,-6.475257874E-2,-6.686328650E-1
1.966409324E0,-2.153767347E-1,-2.135171890E-1,-6.247727871E-1
1.971305626E0,-1.407991648E-1,-1.903657913E-1,-6.322839260E-1
1.976201981E0,-1.256887913E-1,-1.343946457E-1,-6.338659525E-1
1.981098283E0,-1.340622306E-1,-7.436943054E-2,-6.722141504E-1
1.985994585E0,-1.279603839E-1,-1.242933273E-1,-6.043777466E-1
1.990890939E0,-1.529424191E-1,-1.574316025E-1,-4.879566431E-1
1.995787241E0,-1.234719157E-1,-6.231307983E-2,-4.492332935E-1
2.000683543E0,-5.219906569E-2,-2.753639221E-2,-3.878158331E-1
2.005579845E0,3.340184689E-3,2.104473114E-2,-4.085028172E-1
2.010476199E0,2.400565147E-2,6.201934814E-2,-4.159303904E-1
2.015372501E0,-2.822601795E-2,1.358718872E-1,-3.747712374E-1
2.020268804E0,-1.386731863E-1,1.307821274E-1,-1.787247658E-1
2.025165158E0,-1.928839684E-1,4.983234406E-2,-5.085587502E-3
2.030061460E0,-2.076177597E-1,-4.930019379E-2,-3.945934772E-2
2.034957762E0,-1.779274344E-1,-1.094303131E-1,-2.261778116E-1
2.039854116E0,-1.012527943E-1,-2.709312439E-1,-3.602664471E-1
2.044750418E0,-1.770943403E-2,-4.404268265E-1,-4.848940372E-1
2.049646720E0,2.579164505E-2,-6.178989410E-1,-4.696394205E-1
2.054543074E0,1.037178040E-1,-6.560735703E-1,-5.321553946E-1
2.059457554E0,1.210028529E-1,-6.153926849E-1,-6.083680391E-1
2.064335679E0,1.562575698E-1,-4.465703964E-1,-8.506316543E-1
2.069232033E0,3.284025192E-2,-4.308090210E-1,-5.235902071E-1
2.074128335E0,-1.608860493E-2,-2.083024979E-1,-2.086164951E-1
2.079027918E0,-1.986598969E-1,9.339237213E-2,2.635840178E-1
2.083920991E0,-4.149100780E-1,3.192911148E-1,6.976450682E-1
2.088820626E0,-4.083983898E-1,5.222053528E-1,8.902586699E-1
2.093713595E0,-3.139104843E-1,5.265760422E-1,1.131163716E0
2.098613335E0,-1.796326041E-1,5.501174927E-1,1.248967528E0
2.103506251E0,-1.317549348E-1,6.330718994E-1,1.391669273E0
2.108402554E0,-9.589987993E-2,6.966533661E-1,1.430526018E0
2.113298908E0,4.456931353E-2,6.532497406E-1,1.467977881E0
2.118195210E0,2.415808439E-1,5.608100891E-1,1.377635360E0
2.123091564E0,4.261618853E-1,5.527534485E-1,1.217074275E0
2.127987866E0,5.985804796E-1,6.046781540E-1,1.041259050E0
2.132884168E0,6.593418121E-1,6.448554993E-1,8.812702894E-1
2.137780470E0,6.903138161E-1,5.332078934E-1,9.251616001E-1
2.142676824E0,6.865655184E-1,5.137834549E-1,9.493387938E-1
2.147573126E0,6.869770288E-1,6.978254318E-1,7.213447094E-1
2.152469481E0,6.580699682E-1,7.528858185E-1,5.402761698E-1
2.157365783E0,6.693120003E-1,6.457948685E-1,3.919337988E-1
2.162262085E0,6.009633541E-1,5.655479431E-1,4.082107544E-1
2.167158439E0,5.488383770E-1,5.095815659E-1,5.463603735E-1
2.172054741E0,5.439658165E-1,3.893594742E-1,7.565385103E-1
2.176951043E0,5.241880417E-1,3.363161087E-1,7.691037655E-1
2.181847397E0,4.560716152E-1,2.523288727E-1,6.850266457E-1
2.186743699E0,3.563815355E-1,1.518201828E-1,4.973014593E-1
2.191640001E0,1.296029091E-1,-7.989597321E-2,6.938228607E-1
2.196536356E0,-2.563226223E-2,-3.255443573E-1,9.347985983E-1
2.201432658E0,-1.288652420E-3,-4.346303940E-1,8.923788071E-1
2.206329012E0,4.289686680E-2,-5.578556061E-1,5.542207956E-1
2.211225314E0,1.915109158E-2,-6.400699615E-1,3.417479992E-2
2.216121616E0,7.162845135E-2,-6.430015564E-1,-5.444719791E-1
2.221017970E0,1.196793318E-1,-5.667848587E-1,-9.603064060E-1
2.225914272E0,1.827073097E-1,-5.143108368E-1,-1.044337630E0
2.230828751E0,2.365289927E-1,-4.256916046E-1,-9.672645330E-1
2.235706929E0,4.600073099E-1,-8.118534088E-2,-1.011300087E0
2.240603231E0,7.686702013E-1,3.946752548E-1,-1.270018339E0
2.245499533E0,8.888411522E-1,9.132394791E-1,-1.151955485E0
2.250395887E0,8.497505188E-1,1.103935242E0,2.578806877E-2
2.255292189E0,7.947630882E-1,9.743270874E-1,1.939665318E0
2.260206720E0,7.103060484E-1,9.362363815E-1,2.667757034E0
2.265084845E0,4.667936563E-1,1.527199745E0,2.023366690E0
2.269999376E0,2.165023088E-1,1.496685982E0,2.109359264E0
2.274877501E0,2.091453075E-1,1.194452286E0,2.048307180E0
2.279773804E0,4.288221598E-1,8.646268845E-1,1.708817959E0
2.284670106E0,3.441752195E-1,6.719522476E-1,1.035841703E0
2.289584637E0,6.918919086E-2,4.872035980E-1,3.372340202E-1
2.294462762E0,-2.219164371E-1,1.500625610E-1,-8.404397964E-2
2.299359116E0,-6.218302250E-1,-3.654851913E-1,-2.143998146E-1
2.304255418E0,-1.114759326E0,-8.587570190E-1,-2.357292175E-1
2.309169949E0,-1.690009117E0,-1.322931290E0,-3.033900261E-1
2.314048074E0,-2.228416204E0,-1.789680958E0,-4.218652248E-1
2.318944376E0,-2.600225210E0,-2.359602928E0,-4.692482948E-1
2.323840731E0,-2.771162033E0,-2.887119770E0,-3.333976269E-1
2.328737033E0,-2.896099567E0,-3.346255779E0,-2.658073902E-1
2.333633387E0,-3.003340960E0,-3.732465267E0,-1.926116943E-1
2.338627241E0,-2.978034496E0,-4.055613518E0,-5.151152611E-2
2.343425939E0,-3.009011745E0,-4.232450962E0,1.221280098E-1
2.348322345E0,-3.075971365E0,-4.193914413E0,3.601181507E-1
2.353218647E0,-3.255563021E0,-3.663031101E0,5.202534199E-1
2.358115001E0,-3.239435673E0,-2.845751762E0,3.902807236E-1
2.363011304E0,-2.849756718E0,-1.988146305E0,-3.532123566E-2
2.367907606E0,-2.177580357E0,-1.498250008E0,-6.819758415E-1
2.372803960E0,-1.537993670E0,-1.322312832E0,-1.202652454E0
2.377700262E0,-1.157443047E0,-1.227746010E0,-1.538950920E0
2.382596616E0,-9.306436777E-1,-9.992294312E-1,-1.674681425E0
2.387590470E0,-7.620649338E-1,-6.132440567E-1,-1.638259888E0
2.392389220E0,-6.616846323E-1,-1.413516998E-1,-1.517623425E0
2.397285574E0,-7.106058598E-1,3.395395279E-1,-1.297543406E0
2.402181876E0,-7.791180611E-1,6.622533798E-1,-9.768918753E-1
2.407078231E0,-7.317756414E-1,8.820142746E-1,-6.697789431E-1
2.411974533E0,-6.359434128E-1,9.464464188E-1,-4.810638428E-1
2.416870887E0,-5.440343618E-1,9.729585648E-1,-4.466555119E-1
2.421767189E0,-3.332815170E-1,9.161615372E-1,-5.284887552E-1
2.426663543E0,-8.650863171E-2,7.283315659E-1,-6.574442387E-1
2.431559845E0,6.815361977E-2,5.337905884E-1,-6.710246801E-1
2.436456199E0,2.319567204E-1,3.802003860E-1,-6.364151239E-1
2.441352501E0,2.764972448E-1,2.936449051E-1,-7.282084227E-1
2.446248804E0,3.244863749E-1,1.903572083E-1,-9.131375551E-1
2.451145158E0,4.004195929E-1,9.426212311E-2,-1.148498058E0
2.456041460E0,4.902886152E-1,1.250267029E-2,-1.307816267E0
2.460937814E0,5.248639584E-1,-5.024623871E-2,-1.273951530E0
2.465834116E0,4.277582169E-1,-7.736301422E-2,-1.142546773E0
2.470730470E0,3.208953142E-1,-4.500198364E-2,-1.042731762E0
2.475626772E0,1.919406652E-1,-7.977867126E-2,-9.937279224E-1
2.480523126E0,9.564614296E-2,-6.990432739E-3,-1.005381942E0
2.485419429E0,7.469272614E-2,2.516078949E-2,-9.966847897E-1
2.490315731E0,5.219459534E-2,-9.449005127E-3,-9.438691139E-1
2.495212085E0,-3.190815449E-2,-5.569839478E-2,-7.656345367E-1
2.500108387E0,-2.160097361E-1,-7.057094574E-2,-6.435377598E-1
2.505004741E0,-3.876389265E-1,-6.606292725E-2,-6.396161318E-1
2.509901043E0,-3.987625837E-1,-6.367301941E-2,-6.892315149E-1
2.514797397E0,-3.931196928E-1,-1.070594788E-2,-7.401640415E-1
2.519711876E0,-3.513325453E-1,4.737663269E-2,-6.756738424E-1
2.524590054E0,-1.922936440E-1,-1.308794022E-1,-4.619816542E-1
2.529486356E0,4.554867744E-2,-1.915559769E-1,-7.960438728E-2
2.534382710E0,-5.713939667E-2,-7.277774811E-2,2.520623207E-1
2.539297189E0,-2.237567902E-1,4.402494431E-1,4.785068035E-1
2.544175366E0,-1.824465990E-1,8.378515244E-1,7.721936703E-1
2.549071668E0,2.151334286E-2,8.239374161E-1,1.025267363E0
2.553968022E0,1.385563612E-1,7.913684845E-1,1.041550398E0
2.558864324E0,3.479192257E-1,9.315128326E-1,1.028731823E0
2.563760626E0,6.377038956E-1,6.080350876E-1,1.046606302E0
2.568656981E0,5.414670706E-1,-2.098140717E-1,1.022095919E0
2.573553283E0,1.637289524E-1,-2.689313889E-1,1.048921585E0
2.578449637E0,9.636688232E-2,-1.583623886E-1,1.251052618E0
2.583345939E0,3.479313850E-2,-1.961555481E-1,1.422679663E0
2.588339793E0,-4.948711395E-2,-3.605833054E-1,1.408667803E0
2.593138543E0,-8.455479145E-2,-5.511188507E-1,1.305114508E0
2.598034949E0,-6.712281704E-2,-6.745872498E-1,1.085553408E0
2.602931251E0,1.238584518E-3,-6.546669006E-1,7.736151218E-1
2.607827606E0,1.118419170E-1,-6.182746887E-1,5.528857708E-1
2.612723908E0,1.572233438E-1,-6.370220184E-1,2.889444828E-1
2.617620262E0,3.452771902E-1,-5.026407242E-1,6.215691566E-2
2.622516564E0,7.891498804E-1,-4.996347427E-1,-1.907608509E-1
2.627412918E0,9.439769983E-1,-5.727090836E-1,-5.968866348E-1
2.632309220E0,8.812456131E-1,-4.562959671E-1,-8.956650496E-1
2.637205574E0,8.393684626E-1,-2.845468521E-1,-6.805748940E-1
2.642101876E0,7.859861851E-1,-1.245393753E-1,-9.023070335E-2
2.646998231E0,5.899592638E-1,1.887054443E-1,6.293842793E-1
2.651894533E0,5.105483532E-1,5.524072647E-1,1.317700863E0
2.656790887E0,4.205414057E-1,7.921228409E-1,1.828881264E0
2.661687189E0,3.918555975E-1,8.530845642E-1,2.031889915E0
2.666583543E0,4.846800566E-1,7.880859375E-1,1.970475674E0
2.671479845E0,6.137416363E-1,7.500486374E-1,1.762645960E0
2.676376199E0,7.366427183E-1,8.150520325E-1,1.433408737E0
2.681272501E0,8.612257242E-1,9.443922043E-1,1.012288809E0
2.686168856E0,9.979186058E-1,9.658260345E-1,6.665606499E-1
2.691083387E0,9.657686949E-1,8.055315018E-1,3.979713917E-1
2.695961512E0,7.557361126E-1,5.641345978E-1,2.734587193E-1
2.700857814E0,5.042974949E-1,3.468418121E-1,3.193345070E-1
2.705754168E0,1.177357435E-1,1.413249969E-1,4.912147522E-1
2.710650470E0,-2.011452913E-1,-9.791374207E-3,6.826756001E-1
2.715546824E0,-4.575712681E-1,-9.959411621E-2,6.935081482E-1
2.720443179E0,-8.047581315E-1,-1.640281677E-1,5.216355324E-1
2.725339481E0,-1.137602568E0,-1.528654099E-1,3.009347916E-1
2.730253491E0,-1.274182081E0,-7.812500000E-2,1.052021980E-1
2.735132137E0,-1.291481256E0,-4.240608215E-2,-6.641864777E-2
2.740028491E0,-1.395488381E0,3.833675385E-2,-2.531743050E-1
2.744924793E0,-1.440799475E0,6.153678894E-2,-3.123061657E-1
2.749821147E0,-1.384708762E0,7.270240784E-2,-9.103894234E-2
2.754717449E0,-1.083995223E0,-4.775905609E-2,3.913991451E-1
2.759631981E0,-6.129884124E-1,-1.992807388E-1,6.685698032E-1
2.764510106E0,-1.918874979E-1,-2.454357147E-1,6.041693687E-1
2.769424637E0,1.482630968E-1,-1.240510941E-1,3.080475330E-1
2.774302762E0,4.152210951E-1,7.397460938E-2,-3.860521317E-2
2.779199116E0,7.922357321E-1,-4.066152573E-1,-3.345649242E-1
2.784095470E0,2.776057720E-1,-4.271736145E-1,-6.751215458E-1
2.789009949E0,1.922880411E-1,-3.135013580E-1,-8.204915524E-1
2.793888126E0,4.914221764E-1,1.709413528E-1,-1.017380595E0
2.798784429E0,6.097398996E-1,7.819528580E-1,-1.478850365E0
2.803680783E0,5.988675356E-1,1.270778656E0,-1.804868340E0
2.808577085E0,8.598712683E-1,1.575367928E0,-1.901774168E0
2.813473439E0,1.247967124E0,1.653062820E0,-1.937895060E0
2.818369741E0,1.253265023E0,1.590404510E0,-2.105489254E0
2.823266095E0,9.301401377E-1,1.251217842E0,-2.107742071E0
2.828162397E0,5.542509556E-1,8.770198822E-1,-1.740826607E0
2.833058751E0,1.299282312E-1,7.256517410E-1,-1.243164420E0
2.837955106E0,-2.476828098E-1,6.578922272E-1,-7.551403046E-1
2.842851408E0,-5.568334460E-1,5.538206100E-1,-3.955075741E-1
2.847747762E0,-6.890099049E-1,2.846336365E-2,-3.261480331E-1
2.852644064E0,-9.070535898E-1,-1.384191513E-1,-2.740306854E-1
2.857540418E0,-1.088670135E0,-4.040670395E-1,-2.005677223E-1
2.862436720E0,-1.233971715E0,-5.652828217E-1,-1.460533142E-1
2.867333074E0,-1.499847054E0,-3.878440857E-1,-1.491689682E-2
2.872229429E0,-1.503222466E0,-4.268798828E-1,2.381930351E-1
2.877125731E0,-1.633061409E0,-9.546794891E-1,2.644703388E-1
2.882022085E0,-1.713656425E0,-1.478571415E0,3.785936832E-1
2.886918387E0,-1.875640154E0,-2.118450165E0,3.376131058E-1
2.891814741E0,-2.200667381E0,-2.228759766E0,1.562585831E-1
2.896711095E0,-2.287196159E0,-2.221203327E0,1.305565834E-1
2.901607397E0,-2.276650906E0,-2.260427952E0,-1.101016998E-2
2.906503751E0,-2.154535770E0,-2.372116566E0,-2.267119884E-1
2.911400054E0,-1.953549862E0,-2.710920334E0,-5.015094280E-1
2.916296408E0,-1.713660002E0,-3.258944511E0,-8.807568550E-1
2.921192710E0,-1.962016106E0,-2.839269161E0,-1.150873899E0
2.926089064E0,-2.126461983E0,-1.876214027E0,-9.468895197E-1
2.930985418E0,-1.924530745E0,-1.116320610E0,-4.032347202E-1
2.935881720E0,-1.712135077E0,-7.028017044E-1,8.356618881E-2
2.940778074E0,-1.482995152E0,-3.916120529E-1,3.354728222E-1
2.945674376E0,-1.184737682E0,-1.351394653E-1,5.021426678E-1
2.950570731E0,-8.677433133E-1,2.432031631E-1,4.772601128E-1
2.955467085E0,-6.206501722E-1,5.899934769E-1,4.937112331E-1
2.960363387E0,-4.964487255E-1,8.214139938E-1,5.520956516E-1
2.965259741E0,-3.278602958E-1,9.112186432E-1,7.459423542E-1
2.970156043E0,-5.042879283E-2,8.262062073E-1,9.290583134E-1
2.975052397E0,2.093405873E-1,7.054414749E-1,9.430787563E-1
2.979948751E0,4.617940187E-1,5.564069748E-1,8.733396530E-1
2.984845054E0,7.603842616E-1,4.391574860E-1,7.476828098E-1
2.989741408E0,9.358660579E-1,3.777036667E-1,6.468236446E-1
2.994637710E0,1.031786561E0,3.361644745E-1,7.042882442E-1
2.999534064E0,1.163115263E0,3.599243164E-1,8.504509926E-1
3.004430418E0,1.300945640E0,4.655904770E-1,9.704430103E-1
3.009330314E0,1.304023027E0,6.649398804E-1,1.028566122E0
3.014223074E0,1.274795532E0,8.621549606E-1,1.025083542E0
3.019119376E0,1.334677100E0,1.011801720E0,1.031850338E0
3.024015731E0,1.492523909E0,1.159262657E0,1.037199736E0
3.028912085E0,1.683438420E0,1.259006500E0,9.387249947E-1
3.033808387E0,1.897864580E0,1.397096634E0,7.654325962E-1
3.038704741E0,2.061578035E0,1.585376740E0,5.103788376E-1
3.043601095E0,2.277435541E0,1.816643715E0,1.734983921E-1
3.048497397E0,2.471017122E0,2.045472145E0,-1.090726852E-1
3.053393751E0,2.615590096E0,2.369879723E0,-2.204165459E-1
3.058290054E0,2.799227476E0,2.828032494E0,-3.499436378E-1
3.063186408E0,2.860838652E0,3.300261497E0,-4.572126865E-1
3.068082762E0,2.814127684E0,3.652700424E0,-5.470693111E-1
3.072979064E0,2.888273716E0,3.773150444E0,-4.639210701E-1
3.077875418E0,2.948611736E0,3.936732292E0,-6.758213043E-3
3.082771772E0,2.908471584E0,4.107378960E0,4.491829872E-1
3.087668074E0,2.731701612E0,4.084145546E0,8.640055656E-1
3.092564429E0,2.473573685E0,3.862477303E0,1.243135214E0
3.097460731E0,2.273766279E0,3.495381355E0,1.385833502E0
3.102357085E0,2.150171757E0,2.971327782E0,1.392560720E0
3.107253439E0,1.956039906E0,2.355209351E0,1.277744770E0
3.112149741E0,1.724156737E0,1.778698921E0,1.134691477E0
3.117046095E0,1.448787093E0,1.248941422E0,9.991567135E-1
3.121942449E0,1.202960014E0,7.730455399E-1,8.303403854E-1
3.126838751E0,1.102746725E0,3.318395615E-1,5.467000008E-1
3.131735106E0,9.459679723E-1,1.139640808E-2,1.359057426E-1
3.136631460E0,7.264246345E-1,-2.744922638E-1,-1.632204056E-1
3.141527762E0,6.238206029E-1,-4.710168839E-1,-2.169077396E-1
3.146424116E0,4.681113362E-1,-6.406116486E-1,-1.495556831E-1
3.151320418E0,1.582097411E-1,-6.759109497E-1,-1.377651691E-1
3.156216772E0,-1.511023045E-1,-6.801471710E-1,1.532196999E-2
3.161113126E0,-3.217731416E-1,-6.966772079E-1,2.768895626E-1
3.166009429E0,-4.402189851E-1,-7.663431168E-1,4.489867687E-1
3.170905783E0,-5.709617734E-1,-9.034385681E-1,5.030677319E-1
3.175802137E0,-7.569448948E-1,-1.012215614E0,4.893369675E-1
3.180716616E0,-8.209248781E-1,-1.052022934E0,4.601531029E-1
3.185594793E0,-8.341630101E-1,-1.020510674E0,2.597324848E-1
3.190491147E0,-8.831092119E-1,-9.197626114E-1,-1.367537975E-1
3.195387449E0,-1.032588959E0,-8.309326172E-1,-4.690477848E-1
3.200301981E0,-1.153673530E0,-7.514772415E-1,-5.702555180E-1
3.205180158E0,-1.210413575E0,-6.288976669E-1,-6.054375172E-1
3.210094637E0,-1.288819075E0,-5.780353546E-1,-5.316085815E-1
3.214972814E0,-1.309462309E0,-6.516313553E-1,-4.248454571E-1
3.219869168E0,-1.365180731E0,-8.686876297E-1,-3.401231766E-1
3.224765470E0,-1.460487843E0,-1.253316879E0,-3.152070045E-1
3.229680001E0,-1.587325096E0,-2.427832603E0,-4.968235493E-1
3.234558179E0,-2.600952148E0,-2.679206371E0,-7.216491699E-1
3.239472710E0,-2.974529266E0,-2.194747448E0,-3.971295357E-1
3.244350835E0,-2.865489960E0,-1.525582314E0,-1.041243076E-1
3.249265366E0,-2.894886971E0,-8.487653732E-1,-1.150953770E-1
3.254143491E0,-2.868576765E0,-4.939231873E-1,-7.121014595E-2
3.259039845E0,-2.704007626E0,-3.432636261E-1,7.022666931E-2
3.263936199E0,-2.497536421E0,-8.091926575E-2,2.421612740E-1
3.268832501E0,-2.103119850E0,2.069120407E-1,2.483339310E-1
3.273728856E0,-1.599149942E0,3.887634277E-1,1.030206680E-1
3.278625210E0,-1.195764184E0,5.079174042E-1,-5.285644531E-2
3.283521512E0,-8.688689470E-1,5.575399399E-1,-2.653751373E-1
3.288437501E0,-6.184102297E-1,7.053260803E-1,-5.471012592E-1
3.293314220E0,-3.368054032E-1,9.418611526E-1,-7.887778282E-1
3.298210522E0,-1.220637560E-1,1.123662949E0,-1.000249386E0
3.303106876E0,1.075789928E-1,1.138450623E0,-1.050142765E0
3.308003231E0,3.693481684E-1,1.041398048E0,-1.046221733E0
3.312899533E0,5.963672400E-1,9.497880936E-1,-9.526793957E-1
3.317795887E0,6.976907849E-1,9.281005859E-1,-7.527258396E-1
3.322692241E0,7.500110269E-1,8.875608444E-1,-5.224056244E-1
3.327588543E0,7.031984329E-1,8.327884674E-1,-2.683999538E-1
3.332484897E0,6.769719720E-1,7.278451920E-1,-5.740833282E-2
3.337381251E0,6.474059820E-1,6.660737991E-1,4.360985756E-2
3.342277554E0,6.529971957E-1,5.877418518E-1,-1.091694832E-2
3.347173908E0,6.244570613E-1,5.885658264E-1,-1.372938156E-1
3.352070262E0,5.691176653E-1,6.039342880E-1,-2.399508953E-1
3.356966564E0,5.614004731E-1,6.649236679E-1,-3.716466427E-1
3.361862918E0,6.158035398E-1,7.356777191E-1,-5.158362389E-1
3.366759272E0,6.485023499E-1,7.541456223E-1,-6.321680546E-1
3.371655626E0,6.088980436E-1,6.989259720E-1,-5.748400688E-1
3.376551929E0,5.230080485E-1,6.609706879E-1,-3.989813328E-1
3.381448283E0,4.864629507E-1,6.090764999E-1,-2.240016460E-1
3.386344637E0,4.490671158E-1,5.336284637E-1,-6.164479256E-2
3.391240939E0,3.822236657E-1,4.560766220E-1,5.490064621E-2
3.396137293E0,2.933636904E-1,3.620147705E-1,3.737974167E-2
3.401033647E0,2.638692260E-1,2.011547089E-1,2.254033089E-2
3.405930001E0,1.910769343E-1,9.538173676E-2,6.803822517E-2
3.410826304E0,1.303737164E-1,6.287574768E-3,9.023046494E-2
3.415722658E0,9.404504299E-2,-5.894756317E-2,2.896785736E-3
3.420619012E0,8.468699455E-2,-1.767015457E-1,-8.673000336E-2
3.425515314E0,1.141586304E-1,-3.037185669E-1,-5.233860016E-2
3.430411668E0,8.903563023E-2,-3.754053116E-1,8.433318138E-2
3.435308022E0,5.442190170E-2,-4.348716736E-1,3.017308712E-1
3.440222501E0,5.217432976E-3,-4.008417130E-1,4.874520302E-1
3.445100679E0,-6.348514557E-2,-3.715085983E-1,5.652108192E-1
3.450015210E0,-9.938681126E-2,-4.256677628E-1,5.756869316E-1
3.454893335E0,-9.276378155E-2,-4.939088821E-1,5.596637726E-1
3.459807866E0,-1.063044071E-1,-5.761632919E-1,5.435154438E-1
3.464686043E0,-1.348282099E-1,-6.080331802E-1,4.965052605E-1
3.469582397E0,-1.565257311E-1,-6.805143356E-1,4.283480644E-1
3.474478699E0,-7.057797909E-2,-7.672958374E-1,3.796892166E-1
3.479375054E0,5.419445038E-2,-8.898439407E-1,2.736930847E-1
3.484271408E0,1.344252825E-1,-8.926210403E-1,1.148402691E-1
3.489167710E0,1.199427843E-1,-7.327022552E-1,2.257156372E-2
3.494064064E0,1.205343008E-1,-5.729160309E-1,1.236805916E-1
3.498960418E0,9.765207767E-2,-4.802865982E-1,2.675864697E-1
3.503856720E0,2.473115921E-2,-4.547777176E-1,4.018993378E-1
3.508753074E0,3.800523281E-2,-4.963016510E-1,4.525797367E-1
3.513649429E0,5.377173424E-2,-5.378637314E-1,4.819662571E-1
3.518545783E0,-3.540635109E-2,-5.316705704E-1,5.068135262E-1
3.523442085E0,-1.098458767E-1,-5.471105576E-1,5.366613865E-1
3.528338439E0,-2.340140343E-1,-5.936841965E-1,5.761620998E-1
3.533234793E0,-2.307176590E-1,-6.807355881E-1,4.406940937E-1
3.538228647E0,-1.598680019E-1,-7.816123962E-1,2.947146893E-1
3.543027397E0,-1.236457825E-1,-8.320922852E-1,3.205039501E-1
3.547923804E0,-1.516467333E-1,-7.913742065E-1,4.100396633E-1
3.552820158E0,-2.197065353E-1,-6.694583893E-1,5.448024273E-1
3.557716460E0,-1.007012129E-1,-5.477561951E-1,5.502502918E-1
3.562612814E0,4.023349285E-2,-3.879747391E-1,4.670748711E-1
3.567509168E0,1.617395878E-2,-1.349039078E-1,1.968779564E-1
3.572405470E0,8.363604546E-3,8.251953125E-2,4.072022438E-2
3.577301824E0,1.620519161E-2,2.334403992E-1,5.565690994E-2
3.582198179E0,3.473913670E-2,3.776578903E-1,7.194805145E-2
3.587094533E0,9.148120880E-3,5.198497772E-1,-2.255606651E-2
3.591990835E0,-2.946329117E-2,6.887693405E-1,-1.106531620E-1
3.596887189E0,-1.313304901E-1,6.931438446E-1,-2.138824463E-1
3.601783543E0,-2.366452217E-1,5.474767685E-1,-1.216201782E-1
3.606679897E0,-3.261338472E-1,3.354711533E-1,-8.238363266E-2
3.611576199E0,-4.038926363E-1,-5.792713165E-2,-3.092646599E-2
3.616472554E0,-4.575262070E-1,-2.360124588E-1,-5.496501923E-2
3.621368908E0,-5.654255152E-1,-4.863510132E-1,-5.816531181E-2
3.626265210E0,-6.315318346E-1,-8.329687119E-1,-1.024041176E-1
3.631161564E0,-6.842710972E-1,-1.036607265E0,-2.763686180E-1
3.636057918E0,-7.688956857E-1,-1.116511822E0,-3.841352463E-1
3.640954272E0,-8.755714893E-1,-1.127780437E0,-4.069371223E-1
3.645850574E0,-1.015839100E0,-1.084898472E0,-3.688898087E-1
3.650746929E0,-1.002482772E0,-1.047701359E0,-3.254117966E-1
3.655643283E0,-8.209646344E-1,-9.321875572E-1,-4.997582436E-1
3.660539637E0,-7.564775944E-1,-7.619619370E-1,-6.508824825E-1
3.665435939E0,-8.964593410E-1,-5.177707672E-1,-5.108222961E-1
3.670332293E0,-1.053121090E0,-3.266248703E-1,-1.363229752E-1
3.675228647E0,-1.224984407E0,-1.958570480E-1,1.193714142E-1
3.680124949E0,-1.299848080E0,-1.350507736E-1,1.252269745E-1
3.685021304E0,-1.282391548E0,-1.226015091E-1,-8.980846405E-2
3.689935835E0,-1.246456742E0,-1.010046005E-1,-3.560001850E-1
3.694814012E0,-1.284860253E0,-1.157617569E-1,-5.394413471E-1
3.699728491E0,-1.255764246E0,-2.218904495E-1,-6.762404442E-1
3.704606668E0,-1.160708189E0,-4.193000793E-1,-8.600375652E-1
3.709521199E0,-1.013435125E0,-6.217775345E-1,-1.055253983E0
3.714399324E0,-1.055309296E0,-7.624063492E-1,-1.175806761E0
3.719313856E0,-1.178684473E0,-9.035596848E-1,-1.161657572E0
3.724192033E0,-1.333424091E0,-1.057363987E0,-1.096201181E0
3.729088387E0,-1.414173245E0,-1.209665298E0,-1.017337084E0
3.733984689E0,-1.445039988E0,-1.283901215E0,-1.061422586E0
3.738884533E0,-1.598596573E0,-1.227407455E0,-1.142420292E0
3.743777397E0,-1.583142757E0,-1.140773296E0,-1.150218487E0
3.748673751E0,-1.443796158E0,-9.524493217E-1,-1.158919334E0
3.753570054E0,-1.414684415E0,-8.802437782E-1,-1.137314558E0
3.758466408E0,-1.373567104E0,-1.055432320E0,-1.059312582E0
3.763362762E0,-1.140551925E0,-1.317245960E0,-1.014194965E0
3.768259116E0,-8.776472211E-1,-1.421392918E0,-1.088938236E0
3.773155418E0,-6.274949312E-1,-1.195465565E0,-1.308454752E0
3.778051772E0,-4.859706163E-1,-7.684183121E-1,-1.551783562E0
3.782948126E0,-3.129724264E-1,-2.930564880E-1,-1.527791023E0
3.787847866E0,-1.963367462E-1,1.544055939E-1,-1.423451424E0
3.792740783E0,-8.535003662E-2,5.693426132E-1,-1.161923170E0
3.797637137E0,1.862525940E-3,8.415699005E-1,-7.184829712E-1
3.802533491E0,6.858813763E-2,1.073737144E0,-1.088597775E-1
3.807429845E0,1.084648371E-1,1.212982178E0,5.459468365E-1
3.812326147E0,2.093762159E-1,1.204231262E0,9.786403179E-1
3.817222501E0,1.823582649E-1,1.136162758E0,1.043530703E0
3.822118856E0,1.189908981E-1,1.051948547E0,8.339614868E-1
3.827015158E0,1.828490496E-1,8.248758316E-1,6.464653015E-1
3.831911512E0,1.287256479E-1,4.957361221E-1,3.659267426E-1
3.836807866E0,-1.092052460E-2,5.270195007E-2,1.600003242E-2
3.841704220E0,-9.393393993E-2,-3.441200256E-1,-1.256327629E-1
3.846600522E0,-2.965722084E-1,-5.828695297E-1,1.807260513E-2
3.851496876E0,-5.606921315E-1,-7.718172073E-1,1.655027866E-1
3.856393231E0,-8.476113081E-1,-9.949860573E-1,1.737105846E-1
3.861289585E0,-1.190571070E0,-1.254939556E0,2.011282444E-1
3.866185887E0,-1.344853759E0,-1.597356319E0,3.055787086E-1
3.871082241E0,-1.184982896E0,-2.012882710E0,4.466524124E-1
3.875978595E0,-9.827418327E-1,-2.346265316E0,5.385074615E-1
3.880874949E0,-9.306987524E-1,-2.518785477E0,5.380947590E-1
3.885771251E0,-9.206782579E-1,-2.554349899E0,4.474589825E-1
3.890685783E0,-1.029123902E0,-2.381065369E0,2.756445408E-1
3.895563960E0,-1.139635205E0,-2.067873955E0,2.081296444E-1
3.900460314E0,-1.257519007E0,-1.707911015E0,2.420043945E-1
3.905356616E0,-1.324089170E0,-1.326979160E0,2.973394394E-1
3.910252970E0,-1.292840362E0,-9.484539032E-1,2.607929707E-1
3.915149324E0,-1.203576684E0,-5.049533844E-1,1.676867008E-1
3.920063804E0,-1.088440180E0,2.743434906E-2,1.185221672E-1
3.924941981E0,-8.824310303E-1,6.105289459E-1,1.131410599E-1
3.929856512E0,-5.775814652E-1,1.397255898E0,-9.927606583E-2
3.934734689E0,1.925176382E-2,2.476248741E0,-5.047788620E-1
3.939631043E0,8.618430495E-1,3.060139656E0,-4.520218372E-1
3.944527345E0,1.517644644E0,3.070379257E0,-4.671864510E-1
3.949423699E0,2.018926382E0,2.973866463E0,-5.861325264E-1
3.954320054E0,2.407617807E0,2.706130028E0,-5.458810329E-1
3.959234585E0,2.661109924E0,2.267360687E0,-4.352946281E-1
3.964112710E0,2.766463280E0,1.775116920E0,-4.249722958E-1
3.969009064E0,2.780299187E0,1.251074791E0,-4.842453003E-1
3.973905418E0,2.708550215E0,7.525959015E-1,-3.859283924E-1
3.978801772E0,2.621591091E0,3.009014130E-1,-7.949972153E-2
3.983698074E0,2.474780083E0,-4.935932159E-2,2.106170654E-1
3.988594429E0,2.246741295E0,-3.320426941E-1,4.970664978E-1
3.993490783E0,1.999179602E0,-5.187072754E-1,7.827999592E-1
3.998387085E0,1.786625862E0,-5.186748505E-1,9.341855049E-1
4.003283439E0,1.452861071E0,-4.876871109E-1,1.071328163E0
4.008242033E0,1.229643226E0,-3.421173096E-1,1.015039444E0
4.013076147E0,9.817473292E-1,-2.661848068E-1,9.712982178E-1
4.017972501E0,7.381042838E-1,-9.252262115E-2,7.585749626E-1
4.022868804E0,5.512591600E-1,1.213674545E-1,5.181512833E-1
4.027765158E0,4.403501749E-1,1.841316223E-1,3.815789223E-1
4.032661512E0,4.078324437E-1,1.414146423E-1,1.621389389E-1
4.037557866E0,3.007416725E-1,7.230663300E-2,-2.546501160E-2
4.042454168E0,2.222884893E-1,9.158420563E-2,-1.047236919E-1
4.047350522E0,1.676586866E-1,1.799039841E-1,-1.137585640E-1
4.052246876E0,3.382194042E-2,1.649370193E-1,1.455426216E-2
4.057143231E0,-8.376094699E-2,7.788372040E-2,1.366558075E-1
4.062039533E0,-1.253501773E-1,-2.139282227E-2,2.238736153E-1
4.066935887E0,-1.530954838E-1,-4.910755157E-2,1.851654053E-1
4.071832241E0,-1.954601109E-1,-5.787086487E-2,1.017265320E-1
4.076728595E0,-2.618526816E-1,-1.409215927E-1,8.827662468E-2
4.081624897E0,-3.330207467E-1,-3.149042130E-1,1.734054089E-1
4.086521251E0,-3.703549802E-1,-4.816379547E-1,1.751348972E-1
4.091435783E0,-4.213876426E-1,-6.697931290E-1,1.675620079E-1
4.096313960E0,-4.618189037E-1,-8.314218521E-1,1.264677048E-1
4.101210262E0,-6.059305668E-1,-9.761877060E-1,7.114124298E-2
4.106106616E0,-8.008913994E-1,-1.018026352E0,4.940342903E-2
4.111002970E0,-7.691569328E-1,-9.881401062E-1,9.226775169E-2
4.115899324E0,-6.330143213E-1,-9.104423523E-1,9.422922134E-2
4.120813856E0,-5.312981009E-1,-8.518943787E-1,5.282783508E-2
4.125691981E0,-4.069774449E-1,-6.712274551E-1,-1.200199127E-3
4.130606512E0,-2.575531602E-1,-4.427061081E-1,-1.228849888E-1
4.135484689E0,-1.530499607E-1,-1.950664520E-1,-1.518843174E-1
4.140399220E0,-6.492564082E-2,-2.892494202E-2,-1.165187359E-1
4.145277345E0,6.844925880E-2,3.666400909E-2,-4.063677788E-2
4.150173699E0,1.443323493E-1,8.066082001E-2,-5.083250999E-2
4.155070054E0,2.153301537E-1,1.246166229E-1,-3.222918510E-2
4.159984585E0,1.953373253E-1,2.425889969E-1,5.771160126E-3
4.164862710E0,1.653318703E-1,4.418144226E-1,-5.443286896E-2
4.169777241E0,1.753637046E-1,5.286693573E-1,-2.299065590E-1
4.174655418E0,1.601520330E-1,6.230611801E-1,-4.565248489E-1
4.179551772E0,9.806363285E-2,5.861911774E-1,-4.493949413E-1
4.184448074E0,2.289092541E-2,5.304269791E-1,-3.231022358E-1
4.189362345E0,-6.265634298E-2,4.771442413E-1,-2.256007195E-1
4.194240783E0,-1.441640556E-1,4.262247086E-1,-9.674644470E-2
4.199137085E0,-2.407198250E-1,3.130693436E-1,7.786226273E-2
4.204033439E0,-3.692321181E-1,1.664724350E-1,2.000701427E-1
4.208929793E0,-5.009671450E-1,2.960681915E-2,1.931495667E-1
4.213826147E0,-5.759915113E-1,-3.292560577E-2,1.120867729E-1
4.218722449E0,-5.941242576E-1,-1.145534515E-1,1.723980904E-1
4.223618804E0,-5.481214523E-1,-1.675472260E-1,3.216421604E-1
4.228515158E0,-5.312732458E-1,-2.422389984E-1,3.925778866E-1
4.233411512E0,-5.697997808E-1,-2.837333679E-1,4.574213028E-1
4.238405262E0,-5.441681147E-1,-2.467422485E-1,5.069279671E-1
4.243204116E0,-4.817546606E-1,-4.417257309E-1,4.488494396E-1
4.248100522E0,-4.633972943E-1,-1.379903316E0,1.320958138E-1
4.252996876E0,-1.965722293E-1,-6.642732620E-1,9.439611435E-2
4.257893231E0,-4.269637465E-1,2.199459076E-2,-8.021306992E-2
4.262789533E0,-3.306994736E-1,1.908254623E-1,-8.001327515E-3
4.267685887E0,-8.948875964E-2,-4.973411560E-2,9.612679482E-2
4.272582241E0,6.471069157E-2,-2.974119186E-1,1.200366020E-2
4.277478595E0,6.480626017E-2,-3.010244370E-1,-1.384987831E-1
4.282374897E0,-6.049909443E-2,-8.227825165E-2,-1.428217888E-1
4.287368647E0,-1.079557538E-1,1.576881409E-1,-1.123189926E-3
4.292167554E0,-2.509825826E-1,2.613954544E-1,7.728648186E-2
4.297063960E0,-3.191538155E-1,1.572322845E-1,1.093747616E-1
4.301960262E0,-3.033151031E-1,1.101493835E-3,1.877422333E-1
4.306856616E0,-3.998523355E-1,-5.861568451E-2,2.451539040E-1
4.311752970E0,-5.108304620E-1,-6.505870819E-2,3.030662537E-1
4.316649324E0,-5.884410143E-1,-1.450929642E-1,3.330032825E-1
4.321545626E0,-6.947826147E-1,-2.245540619E-1,3.662431240E-1
4.326441981E0,-8.081020117E-1,-3.512125015E-1,4.121730328E-1
4.331338335E0,-9.258701205E-1,-3.147172928E-1,1.268637180E-1
4.336234689E0,-8.640224934E-1,-2.852725983E-1,-7.008862495E-2
4.341131043E0,-7.089197040E-1,-2.607078552E-1,-1.637210846E-1
4.346027345E0,-5.969128013E-1,-2.076072693E-1,-1.539497375E-1
4.350923699E0,-5.851973295E-1,-4.703521729E-2,-1.654357910E-1
4.355820054E0,-5.610876083E-1,-1.043367386E-1,-2.745969296E-1
4.360734585E0,-3.812177479E-1,-2.954320908E-1,-1.445369720E-1
4.365612710E0,-1.202129573E-1,-2.829179764E-1,1.612091064E-2
4.370527241E0,-4.569096863E-2,-1.937942505E-1,-2.692174911E-2
4.375405418E0,-2.156302333E-3,-6.886482239E-2,8.917570114E-3
4.380301772E0,1.779301465E-2,4.398727417E-2,7.578921318E-2
4.385198074E0,2.126547694E-1,1.065483093E-1,4.684972763E-2
4.390112658E0,2.878963947E-1,1.764249802E-1,-7.352495193E-2
4.394990783E0,1.882241368E-1,3.516664505E-1,-1.657726765E-1
4.399887137E0,1.099250615E-1,5.388326645E-1,-1.054172516E-1
4.404783439E0,1.653191447E-1,6.207561493E-1,-2.181744576E-2
4.409679793E0,2.444012910E-1,5.593385696E-1,-1.071834564E-2
4.414576147E0,3.376467824E-1,4.073476791E-1,9.062862396E-2
4.419472501E0,3.971825540E-1,3.034811020E-1,2.178604603E-1
4.424368804E0,4.517544508E-1,1.925754547E-1,3.067235947E-1
4.429283335E0,4.801496863E-1,1.582593918E-1,3.168709278E-1
4.434161512E0,4.943075180E-1,1.022663116E-1,3.253374100E-1
4.439061147E0,5.254523158E-1,1.297378540E-1,4.041693211E-1
4.443954220E0,6.166431904E-1,1.448745728E-1,4.171540737E-1
4.448850522E0,8.803812265E-1,1.139898300E-1,6.950852871E-1
4.453746876E0,1.065492392E0,-1.135215759E-1,9.484076500E-1
4.458643231E0,6.718670726E-1,-2.560710907E-2,1.653065681E-1
4.463539533E0,5.200312138E-1,1.644992828E-1,2.329659462E-2
4.468435887E0,4.636221230E-1,4.113245010E-1,-1.458392143E-1
4.473332241E0,3.203063607E-1,6.264200211E-1,-3.711297512E-1
4.478228595E0,2.500473857E-1,6.783771515E-1,-3.467073441E-1
4.483124949E0,4.951009154E-2,6.177892685E-1,-7.310090065E-1
4.488021251E0,-2.978461981E-2,5.166101456E-1,-8.805356026E-1
4.492917606E0,1.004966497E-1,2.630777359E-1,-7.614963055E-1
4.497813960E0,1.349455416E-1,3.072452545E-2,-7.361364365E-1
4.502710314E0,7.917279005E-2,-1.354684830E-1,-5.687832832E-1
4.507606616E0,-1.386851072E-2,-2.692031860E-1,-4.342277050E-1
4.512502970E0,3.426730633E-3,-3.564338684E-1,-3.680312634E-1
4.517399324E0,-3.140664101E-2,-4.307575226E-1,-2.154216766E-1
4.522295679E0,-1.110206842E-1,-4.590415955E-1,-1.148800850E-1
4.527191981E0,-1.332015395E-1,-4.203395844E-1,-5.642223358E-2
4.532088335E0,7.754129171E-2,-3.295516968E-1,6.514859200E-2
4.536984689E0,8.188814521E-1,-4.106550217E-1,1.397363186E0
4.541881043E0,2.696637511E-1,-1.635055542E-1,3.184254169E-1
4.546777397E0,-6.217831373E-2,-1.571464539E-2,2.452588081E-2
4.551673699E0,-1.410996914E-1,-1.392555237E-2,1.219580173E-1
4.556570054E0,-3.088993430E-1,2.847442627E-1,-9.798836708E-2
4.561466408E0,-3.676567674E-1,4.054946899E-1,-4.336471558E-1
4.566362710E0,-4.894393682E-1,4.187049866E-1,-7.631986141E-1
4.571259064E0,-3.932552934E-1,2.846984863E-1,-4.615259171E-1
4.576155418E0,-9.430605173E-2,4.567146301E-3,-2.098495960E-1
4.581051772E0,6.711101532E-2,-2.329750061E-1,-2.186169624E-1
4.585948126E0,1.092315912E-1,-3.642511368E-1,-2.811059952E-1
4.590844429E0,1.477398276E-1,-4.304695129E-1,-4.015495777E-1
4.595740783E0,1.735277772E-1,-4.463920593E-1,-5.010890961E-1
4.600655314E0,2.129329443E-1,-4.313955307E-1,-4.944903851E-1
4.605533491E0,1.633881927E-1,-4.097127914E-1,-3.842985630E-1
4.610429793E0,7.760254741E-1,-7.448730469E-1,1.189870834E0
4.615326147E0,1.781365871E-1,-5.743207932E-1,2.572793961E-1
4.620222501E0,-3.107031584E-1,-2.512445450E-1,5.545854568E-2
4.625118856E0,-5.825775266E-1,9.498596191E-2,-1.414949894E-1
4.630033335E0,-6.132894754E-1,3.527317047E-1,-2.961215973E-1
4.634911512E0,-5.092411637E-1,4.777650833E-1,-3.190433979E-1
4.639826043E0,-3.137974143E-1,4.451217651E-1,-3.110783100E-1
4.644704220E0,-7.742494345E-2,3.273830414E-1,-2.180006504E-1
4.649618699E0,1.217296124E-1,1.750993729E-1,-1.898729801E-1
4.654496876E0,2.982073426E-1,3.133010864E-2,-1.479337215E-1
4.659411408E0,4.334186018E-1,-3.758716583E-2,-4.452109337E-2
4.664289585E0,4.277539253E-1,2.228546143E-2,1.546382904E-2
4.669185887E0,3.488889933E-1,1.337852478E-1,4.232716560E-2
4.674082241E0,2.184445262E-1,2.441778183E-1,1.124515533E-1
4.678978595E0,1.601347923E-1,3.748655319E-1,1.873645782E-1
4.683874949E0,1.185732484E-1,4.568748474E-1,2.098019123E-1
4.688774793E0,7.915997505E-2,5.499715805E-1,2.537002563E-1
4.693667606E0,1.178433895E-1,6.470499039E-1,2.472481728E-1
4.698563960E0,1.862720251E-1,6.341533661E-1,2.927186489E-1
4.703460314E0,4.373097420E-2,6.878585815E-1,3.230159283E-1
4.708356616E0,-1.688728333E-1,7.482080460E-1,5.018649101E-1
4.713252970E0,-2.114666700E-1,7.082977295E-1,6.641018391E-1
4.718149324E0,-2.185447216E-1,6.069669724E-1,7.907273769E-1
4.723045679E0,-2.065241337E-1,4.423217773E-1,7.517621517E-1
4.727942033E0,-1.657360792E-1,2.292156219E-1,7.834517956E-1
4.732838335E0,-1.246330738E-1,7.514762878E-2,8.130998611E-1
4.737734689E0,-3.464210033E-2,-1.392364502E-3,7.248885632E-1
4.742631043E0,2.430474758E-2,-3.672218323E-2,5.964889526E-1
4.747527397E0,2.524158359E-1,-1.191587448E-1,1.124568224E0
4.752423699E0,3.821951151E-2,-1.722049713E-1,6.626336575E-1
4.757320054E0,-1.016183496E-1,-1.153278351E-1,2.111830711E-1
4.762216408E0,-2.055172920E-1,-1.322469711E-1,-7.312822342E-2
4.767112762E0,-2.899399996E-1,-1.463851929E-1,-4.075000286E-1
4.772009064E0,-2.405213118E-1,-1.268787384E-1,-6.679192781E-1
4.776905418E0,-2.293449640E-1,-1.782178879E-1,-9.129391909E-1
4.781801772E0,-2.251579762E-1,-1.857509613E-1,-1.114552975E0
4.786698126E0,-1.494657993E-1,-2.186880112E-1,-1.144879341E0
4.791594429E0,-4.805326462E-4,-2.436084747E-1,-1.107276201E0
4.796490783E0,-2.355086803E-2,-2.582807541E-1,-1.080420613E0
4.801387137E0,-5.883395672E-2,-2.719221115E-1,-1.045250058E0
4.806283491E0,-8.024466038E-2,-2.660980225E-1,-8.931910992E-1
4.811179793E0,-1.647324562E-1,-2.026481628E-1,-6.720609665E-1
4.816076147E0,-8.554363251E-2,-1.629600525E-1,-4.681389332E-1
4.820972501E0,-8.486938477E-2,-1.112318039E-1,-3.481962681E-1
4.825868856E0,-2.253826857E-1,2.621650696E-3,-3.024110794E-1
4.830765158E0,-3.809944391E-1,1.569166183E-1,-2.303478718E-1
4.835661512E0,-4.204775095E-1,3.228521347E-1,-2.109022141E-1
4.840557866E0,-3.628890514E-1,4.788274765E-1,-1.575927734E-1
4.845454220E0,-3.109288216E-1,5.673656464E-1,-4.604434967E-2
4.850368751E0,-2.668771744E-1,6.267414093E-1,8.330845833E-2
4.855246876E0,-2.117066383E-1,5.828847885E-1,1.729159355E-1
4.860143231E0,-1.023371220E-1,4.575414658E-1,2.822375298E-1
4.865039585E0,-1.617089510E-1,3.393096924E-1,3.606269360E-1
4.869954116E0,-1.866788864E-1,2.401399612E-1,3.768336773E-1
4.874832241E0,-2.467406988E-1,4.045295715E-2,2.280135155E-1
4.879728595E0,-2.916085720E-1,-1.521472931E-1,1.682956219E-1
4.884624949E0,-3.186458349E-1,-1.537351608E-1,3.849210739E-1
4.889521251E0,-2.316933870E-1,-1.534986496E-1,4.022181034E-1
4.894417606E0,-2.366360426E-1,-1.633605957E-1,3.852238655E-1
4.899313960E0,-3.767968416E-1,-6.602859497E-2,2.974264622E-1
4.904210314E0,-4.968136549E-1,-2.154197693E-1,2.387940884E-1
4.909106616E0,-5.464457273E-1,-2.907905579E-1,3.837571144E-1
4.914002970E0,-4.583241940E-1,-2.563972473E-1,5.794510841E-1
4.918899324E0,-4.788068533E-1,-1.506853104E-1,7.782719135E-1
4.923795679E0,-5.672343969E-1,-8.133411407E-2,9.800984859E-1
4.928691981E0,-5.824847221E-1,-4.343318939E-2,1.179795265E0
4.933588335E0,-4.478752613E-1,-8.112907410E-3,1.183291674E0
4.938587449E0,-3.279972076E-1,-2.307128906E-2,1.009860039E0
4.943581772E0,-3.349214792E-1,-6.896972656E-3,8.605465889E-1
4.948576043E0,-4.850691557E-1,3.316497803E-2,6.662151814E-1
4.953570314E0,-3.902672529E-1,9.476661682E-2,6.398470402E-1
4.958564585E0,-2.368555069E-1,1.229591370E-1,6.234266758E-1
4.963558804E0,-1.799570322E-1,1.943645477E-1,5.021672249E-1
4.968553074E0,-2.170251608E-1,2.730674744E-1,3.598861694E-1
4.973547345E0,-3.696017265E-1,4.331836700E-1,1.965456009E-1
4.978541616E0,-4.537851810E-1,5.789642334E-1,1.912450790E-2
4.983535835E0,-4.771500826E-1,6.554880142E-1,-9.149813652E-2
4.988530106E0,-4.758216143E-1,7.107677460E-1,-2.244595289E-1
4.993524376E0,-4.376219511E-1,8.046970367E-1,-4.038456678E-1
4.998518647E0,-2.354167700E-1,7.915554047E-1,-6.731387377E-1
5.003512866E0,-1.948981285E-1,7.170162201E-1,-6.981582642E-1
5.008507137E0,-3.047704697E-1,6.480693817E-1,-5.179542303E-1
5.013501408E0,-3.715605736E-1,5.105600357E-1,-1.210277081E-1
5.018495679E0,-3.692250252E-1,3.547534943E-1,1.575834751E-1
5.023489897E0,-3.672449589E-1,2.332668304E-1,2.630259991E-1
5.028484168E0,-4.444066286E-1,1.484918594E-1,2.528450489E-1
5.033478439E0,-4.812145233E-1,7.648468018E-2,2.680907249E-1
5.038472658E0,-4.919421673E-1,1.250743866E-2,2.990560532E-1
5.043466929E0,-5.196920633E-1,9.156227112E-3,3.983592987E-1
5.048461199E0,-5.000263453E-1,2.088642120E-2,4.895470142E-1
5.053455470E0,-4.926084280E-1,7.632446289E-2,5.347812176E-1
5.058449689E0,-4.709461927E-1,1.657352448E-1,5.324323177E-1
5.063443960E0,-4.614256620E-1,2.865781784E-1,4.352171421E-1
5.068457033E0,-4.376497269E-1,4.052877426E-1,3.105099201E-1
5.073432501E0,-3.520523310E-1,5.359773636E-1,2.835135460E-1
5.078426720E0,-3.337937593E-1,6.546325684E-1,1.799371243E-1
5.083420991E0,-3.326156139E-1,7.562551498E-1,-2.794575691E-2
5.088415262E0,-3.391238451E-1,8.071317673E-1,-9.769749641E-2
5.093409533E0,-2.865873575E-1,7.664728165E-1,-1.078372002E-1
5.098403751E0,-2.498122454E-1,7.154579163E-1,-2.278549671E-1
5.103398022E0,-2.515141964E-1,7.844133377E-1,-3.466708660E-1
5.108410835E0,-2.624946833E-1,8.772468567E-1,-3.600287437E-1
5.113386564E0,-2.848395109E-1,9.054269791E-1,-3.286561966E-1
5.118380783E0,-2.991501093E-1,9.357175827E-1,-3.254046440E-1
5.123375054E0,-3.314265013E-1,9.679870605E-1,-3.209555149E-1
5.128388126E0,-2.886116505E-1,9.405956268E-1,-2.773621082E-1
5.133363595E0,-2.438384295E-1,9.154863358E-1,-2.138710022E-1
5.138376356E0,-3.241308928E-1,9.172086716E-1,-3.417980671E-1
5.143352085E0,-3.091113567E-1,9.247026443E-1,-4.232400656E-1
5.148346356E0,-3.278158903E-1,9.071502686E-1,-5.354210138E-1
5.153340574E0,-3.442031145E-1,8.912448883E-1,-6.315488815E-1
5.158334845E0,-3.294548988E-1,8.533964157E-1,-7.389419079E-1
5.163329116E0,-2.716513872E-1,7.484188080E-1,-7.196297646E-1
5.168323387E0,-1.850762367E-1,6.148672104E-1,-5.074989796E-1
5.173317606E0,-9.607529640E-2,4.505519867E-1,-2.397443056E-1
5.178311876E0,-6.208455563E-2,2.628316879E-1,-6.295549870E-2
5.183301720E0,-4.918146133E-2,7.766342163E-2,4.572558403E-2
5.188198074E0,-6.967031956E-2,-7.910156250E-2,1.489597559E-1
5.193094376E0,-2.087962627E-1,-1.627454758E-1,2.354396582E-1
5.197990731E0,-2.589657307E-1,-2.070941925E-1,2.742060423E-1
5.202887085E0,-1.778942347E-1,-2.670145035E-1,3.580297232E-1
5.207783439E0,-4.236662388E-2,-2.829465866E-1,4.648284912E-1
5.212679741E0,8.572638035E-2,-2.623167038E-1,4.303289652E-1
5.217576095E0,2.258255482E-1,-2.742319107E-1,3.221337795E-1
5.222472449E0,3.616769314E-1,-2.827682495E-1,1.290794611E-1
5.227368751E0,5.990294218E-1,-3.210554123E-1,-2.664482594E-2
5.232265106E0,1.763655901E0,-2.104558945E-1,-4.940032959E-2
5.237161460E0,1.834095240E0,-2.727832794E-1,-1.233351231E-1
5.242057814E0,1.711163402E0,-4.290657043E-1,-3.579677343E-1
5.246954116E0,1.557896495E0,-5.960760117E-1,-6.233499050E-1
5.251850470E0,1.327943325E0,-7.261629105E-1,-8.787538409E-1
5.256746824E0,1.128192186E0,-8.170957565E-1,-1.071860313E0
5.261643179E0,9.244318604E-1,-8.761901855E-1,-1.222213149E0
5.266539481E0,7.304443121E-1,-9.227437973E-1,-1.348950624E0
5.271435835E0,5.506703854E-1,-9.735984802E-1,-1.449649096E0
5.276332189E0,3.777830601E-1,-9.618444443E-1,-1.495603919E0
5.281228491E0,2.309340239E-1,-9.425735474E-1,-1.448544502E0
5.286124845E0,1.435666084E-1,-8.751688004E-1,-1.332394838E0
5.291021199E0,-6.204962730E-3,-8.098926544E-1,-1.118478537E0
5.295917554E0,-1.298630238E-1,-6.941699982E-1,-9.239444733E-1
5.300813856E0,-2.249057293E-1,-6.284570694E-1,-6.818429232E-1
5.305710210E0,-2.959241867E-1,-5.433225632E-1,-4.398941994E-1
5.310624741E0,-3.093075752E-1,-4.817895889E-1,-2.172290087E-1
5.315502918E0,-4.279694557E-1,-3.602209091E-1,-4.031062126E-3
5.320417449E0,-4.888613224E-1,-2.168970108E-1,1.114169359E-1
5.325295574E0,-5.618019104E-1,-6.871509552E-2,1.152402163E-1
5.330210106E0,-6.681203842E-1,5.805873871E-2,3.149533272E-2
5.335088283E0,-7.366595268E-1,1.011161804E-1,5.658853054E-2
5.340002762E0,-7.721631527E-1,1.203985214E-1,1.853415966E-1
5.344880939E0,-6.166179180E-1,-3.229236603E-2,4.729125500E-1
5.349795470E0,8.032798767E-3,-6.075544357E-1,1.045637012E0
5.354673595E0,2.245712280E-2,-5.768175125E-1,1.018866301E0
5.359588126E0,2.791070938E-2,-5.935401917E-1,9.338396788E-1
5.364466304E0,2.827620506E-1,-8.418169022E-1,9.656641483E-1
5.369380835E0,4.405931234E-1,-9.864206314E-1,9.920936823E-1
5.374258960E0,3.741855621E-1,-9.751253128E-1,9.588013887E-1
5.379155314E0,3.446164131E-1,-9.132852554E-1,9.614938498E-1
5.384051668E0,1.839084625E-1,-7.916097641E-1,9.742649794E-1
5.388951460E0,-2.428984642E-2,-6.724681854E-1,1.002278686E0
5.393844324E0,-5.274033546E-2,-6.012744904E-1,1.038277149E0
5.398740679E0,-6.190156937E-2,-5.397119522E-1,1.079797745E0
5.403637033E0,-3.148148060E-1,-4.137325287E-1,1.005358338E0
5.408533335E0,-4.763624668E-1,-2.927894592E-1,9.539980888E-1
5.413429689E0,-5.370671749E-1,-1.744966507E-1,1.030952334E0
5.418326043E0,-6.189656258E-1,-1.042842865E-1,1.016132593E0
5.423222397E0,-7.650368214E-1,-4.621601105E-2,9.263437986E-1
5.428118699E0,-8.508141041E-1,2.606391907E-2,9.097787142E-1
5.433015054E0,-9.504988194E-1,1.412515640E-1,8.443126678E-1
5.437911408E0,-9.948403835E-1,2.132215500E-1,7.919303179E-1
5.442807710E0,-9.887328148E-1,3.305730820E-1,8.287198544E-1
5.447704064E0,-1.135746956E0,4.047117233E-1,7.177747488E-1
5.452600418E0,-1.287805080E0,4.929752350E-1,5.213918686E-1
5.457496772E0,-1.363956451E0,5.761356354E-1,4.284335375E-1
5.462393074E0,-1.508103132E0,6.182403564E-1,2.378002405E-1
5.467289429E0,-1.584217310E0,6.885871887E-1,4.989469051E-2
5.472185783E0,-1.611852169E0,6.818466187E-1,-1.306546926E-1
5.477082137E0,-1.703713655E0,6.864881516E-1,-3.277879953E-1
5.481978439E0,-1.527200937E0,4.228010178E-1,-4.125015736E-1
5.486874793E0,-1.487076044E0,4.983949661E-1,-5.693181753E-1
5.491771147E0,-1.544965267E0,5.015268326E-1,-9.128261805E-1
5.496667449E0,-1.593123913E0,4.824037552E-1,-1.219999194E0
5.501563804E0,-1.607541561E0,4.768972397E-1,-1.378257275E0
5.506460158E0,-1.659796000E0,4.371471405E-1,-1.559572458E0
5.511356512E0,-1.680390120E0,4.587945938E-1,-1.648814321E0
5.516252814E0,-1.657298088E0,4.580411911E-1,-1.684027433E0
5.521149168E0,-1.674071789E0,5.138130188E-1,-1.648243427E0
5.526045522E0,-1.785643101E0,5.685529709E-1,-1.741906524E0
5.530941876E0,-1.812545538E0,6.724224091E-1,-1.775682688E0
5.535838179E0,-1.699933529E0,7.344865799E-1,-1.367083669E0
5.540734533E0,-1.431217670E0,7.452983856E-1,-8.420900106E-1
5.545630887E0,-1.123702526E0,6.715507507E-1,-3.303432465E-1
5.550527189E0,-8.370049000E-1,5.254268646E-1,3.882420063E-2
5.555423543E0,-5.660717487E-1,3.980064392E-1,3.227968216E-1
5.560338074E0,-3.657188416E-1,2.654180527E-1,4.858011007E-1
5.565216199E0,-1.710348129E-1,1.278018951E-1,5.325834751E-1
5.570112554E0,-4.148149490E-2,-1.476192474E-2,4.801912308E-1
5.575008908E0,4.247450829E-2,-1.669330597E-1,3.335334063E-1
5.579905262E0,7.633352280E-2,-2.808036804E-1,1.405830383E-1
5.584801564E0,1.010389328E-1,-3.945779800E-1,-5.088746548E-2
5.589697918E0,6.637954712E-2,-4.819345474E-1,-1.596534252E-1
5.594594272E0,8.109569550E-3,-5.548725128E-1,-2.410389185E-1
5.599490626E0,-6.903314590E-2,-5.990276337E-1,-2.714655399E-1
5.604386929E0,-1.149125099E-1,-6.287727356E-1,-2.583740950E-1
5.609301720E0,-1.821558475E-1,-6.680221558E-1,-2.305384874E-1
5.614179637E0,-2.179100513E-1,-6.902828217E-1,-2.196582556E-1
5.619075939E0,-2.580604553E-1,-6.931991577E-1,-2.064946890E-1
5.623972293E0,-3.096215725E-1,-6.838846207E-1,-2.056124210E-1
5.628872085E0,-3.150484562E-1,-6.455507278E-1,-1.836425066E-1
5.633764949E0,-3.340368271E-1,-6.140165329E-1,-1.767615080E-1
5.638754897E0,-3.547837734E-1,-5.965528488E-1,-1.416240931E-1
5.643749220E0,-4.175646305E-1,-5.616521835E-1,-1.111565828E-1
5.648743491E0,-4.993774891E-1,-5.145750046E-1,-5.577445030E-2
5.653737762E0,-5.814564228E-1,-5.343494415E-1,-1.631295681E-2
5.658732033E0,-6.377570629E-1,-5.253190994E-1,1.192975044E-2
5.663726251E0,-7.139415741E-1,-5.473871231E-1,3.866481781E-2
5.668720522E0,-7.479825020E-1,-5.288391113E-1,7.106757164E-2
5.673714793E0,-7.564973831E-1,-5.222988129E-1,9.253203869E-2
5.678709064E0,-7.465572357E-1,-4.942522049E-1,8.881783485E-2
5.683706720E0,-7.108333111E-1,-4.829654694E-1,1.151794195E-1
5.688704376E0,-6.683745384E-1,-4.836120605E-1,9.990882874E-2
5.693698647E0,-6.189877987E-1,-4.554977417E-1,8.153188229E-2
5.698692866E0,-6.295053959E-1,-4.464864731E-1,7.706141472E-2
5.703687137E0,-5.922179222E-1,-4.661340714E-1,8.666336536E-2
5.708681408E0,-5.884249210E-1,-4.833364487E-1,1.153050661E-1
5.713675626E0,-5.941324234E-1,-5.148315430E-1,1.630444527E-1
5.718669897E0,-6.188075542E-1,-5.797395706E-1,2.085654736E-1
5.723664168E0,-6.409895420E-1,-6.182804108E-1,2.328346968E-1
5.728658439E0,-7.036693096E-1,-6.830997467E-1,2.599523067E-1
5.733652658E0,-7.685639858E-1,-7.598133087E-1,2.683134079E-1
5.738646929E0,-7.998266220E-1,-8.245134354E-1,2.795639038E-1
5.743641199E0,-8.573315144E-1,-8.939571381E-1,2.840269804E-1
5.748635418E0,-9.196288586E-1,-9.251155853E-1,2.505630255E-1
5.753629689E0,-9.747540951E-1,-9.491176605E-1,2.365862131E-1
5.758623960E0,-1.041841507E0,-9.707326889E-1,1.869412661E-1
5.763618231E0,-1.104140282E0,-9.803915024E-1,1.661751270E-1
5.768612449E0,-1.164116859E0,-9.589853287E-1,1.239280701E-1
5.773606720E0,-1.212216139E0,-8.922061920E-1,9.369480610E-2
5.778600991E0,-1.289032459E0,-8.231077194E-1,8.009469509E-2
5.783595210E0,-1.341957092E0,-7.349519730E-1,6.628274918E-2
5.788589481E0,-1.394772768E0,-6.348915100E-1,3.788685799E-2
5.793583751E0,-1.423468351E0,-5.467996597E-1,3.304255009E-2
5.798577970E0,-1.475761175E0,-4.395294189E-1,2.053141594E-2
5.803572241E0,-1.489375591E0,-3.537139893E-1,3.131484985E-2
5.808566512E0,-1.509701967E0,-2.534141541E-1,4.130744934E-2
5.813560731E0,-1.567808628E0,-1.721105576E-1,5.037415028E-2
5.818555001E0,-1.579929829E0,-1.001815796E-1,3.681516647E-2
5.823549272E0,-1.596323490E0,-3.519153595E-2,2.913177013E-2
5.828562085E0,-1.617080212E0,1.329612732E-2,2.234411240E-2
5.833537762E0,-1.618429899E0,7.636642456E-2,1.629912853E-2
5.838550314E0,-1.600515127E0,9.659957886E-2,-1.307117939E-2
5.843526304E0,-1.565780401E0,1.457834244E-1,-7.052993774E-2
5.848539116E0,-1.500041246E0,1.305913925E-1,-1.226152182E-1
5.853514793E0,-1.369831085E0,1.275987625E-1,-2.073299885E-1
5.858509064E0,-1.278174639E0,1.223917007E-1,-3.125344515E-1
5.863503283E0,-1.165096760E0,1.221389771E-1,-3.732542992E-1
5.868497554E0,-1.047348499E0,1.028604507E-1,-4.177386761E-1
5.873491824E0,-1.001313210E0,1.338958740E-1,-4.670414925E-1
5.878486095E0,-9.192368984E-1,1.625366211E-1,-4.609632492E-1
5.883478231E0,-9.015350342E-1,2.293872833E-1,-4.254510403E-1
5.888409793E0,-8.404350281E-1,3.367414474E-1,-3.624104261E-1
5.893270939E0,-8.268094063E-1,4.534273148E-1,-2.883255482E-1
5.898167241E0,-8.221681118E-1,5.674991608E-1,-2.006471157E-1
5.903063595E0,-8.311073780E-1,7.004690170E-1,-1.276967525E-1
5.907959949E0,-8.175411224E-1,8.308191299E-1,-2.863335609E-2
5.912856251E0,-8.172316551E-1,9.442081451E-1,4.175150394E-2
5.917752606E0,-8.133645058E-1,1.071753502E0,1.385353804E-1
5.922648960E0,-8.107273579E-1,1.153680801E0,2.400470972E-1
5.927545314E0,-7.975387573E-1,1.170891762E0,3.437370062E-1
5.932441616E0,-8.028388023E-1,1.161678314E0,4.374082088E-1
5.937337970E0,-7.888875008E-1,1.071011543E0,5.157179832E-1
5.942234324E0,-7.633645535E-1,9.324254990E-1,5.493794680E-1
5.947130626E0,-7.386524677E-1,7.292194366E-1,4.828233719E-1
5.952026981E0,-7.390244007E-1,5.068693161E-1,3.610904217E-1
5.956923335E0,-7.430930138E-1,2.486829758E-1,1.742225885E-1
5.961819637E0,-7.796037197E-1,3.601837158E-2,-3.971505165E-2
5.966715991E0,-7.958683968E-1,-1.574687958E-1,-2.544302940E-1
5.971612345E0,-7.751836777E-1,-3.078956604E-1,-4.484014511E-1
5.976508647E0,-7.508249283E-1,-4.368000031E-1,-6.238107681E-1
5.981405001E0,-6.938750744E-1,-4.891986847E-1,-7.683473229E-1
5.986301356E0,-6.448955536E-1,-5.536870956E-1,-9.174153805E-1
5.991197658E0,-5.846161842E-1,-5.800790787E-1,-1.005821586E0
5.996094012E0,-5.081918240E-1,-6.019535065E-1,-1.004307270E0
6.000990366E0,-4.396080971E-1,-5.883169174E-1,-8.861079216E-1
6.005886720E0,-3.359363079E-1,-6.062355042E-1,-6.413934231E-1
6.010783022E0,-2.666125298E-1,-6.270160675E-1,-3.393678665E-1
6.015679376E0,-1.693375111E-1,-6.530284882E-1,-2.774167061E-2
6.020575731E0,-7.961010933E-2,-7.320432663E-1,7.661890984E-2
6.025472033E0,-2.569913864E-2,-8.472003937E-1,-6.598484516E-2
6.030368387E0,2.434351444E-1,-9.241895676E-1,3.542482853E-1
6.035264741E0,5.053265095E-1,-8.695592880E-1,8.807376623E-1
6.040179220E0,6.932545900E-1,-7.980766296E-1,1.156134844E0
6.045057397E0,8.148535490E-1,-7.143478394E-1,1.163049698E0
6.049953751E0,8.893487453E-1,-6.614131927E-1,1.002097607E0
6.054850054E0,8.881558180E-1,-5.387039185E-1,8.302598000E-1
6.059764324E0,8.638249636E-1,-4.084300995E-1,6.895094514E-1
6.064642762E0,8.137753010E-1,-2.729492188E-1,5.736404061E-1
6.069557241E0,8.120104074E-1,-1.729412079E-1,4.581865668E-1
6.074435418E0,8.487664461E-1,-4.617786407E-2,3.207411766E-1
6.079349949E0,8.521966934E-1,3.314495087E-2,2.067270875E-1
6.084228074E0,8.679149151E-1,1.607694626E-1,1.063467860E-1
6.089142658E0,8.908351660E-1,2.743797302E-1,1.057425141E-1
6.094020783E0,9.112547636E-1,3.045949936E-1,9.035670757E-2
6.098917085E0,9.720612764E-1,3.088426590E-1,1.060420275E-1
6.103813439E0,9.942260981E-1,2.751359940E-1,4.830950499E-2
6.108709793E0,1.020672679E0,2.416944504E-1,-1.512205601E-2
6.113606095E0,1.039356470E0,2.084617615E-1,-4.058188200E-2
6.118502449E0,1.062323928E0,1.921615601E-1,-1.160249114E-1
6.123398804E0,1.103860140E0,1.975212097E-1,-9.753996134E-2
6.128295158E0,1.166418076E0,2.340898514E-1,-3.040176630E-2
6.133191460E0,1.199897528E0,2.898788452E-1,-5.773496628E-2
6.138087814E0,1.237729311E0,3.241519928E-1,-8.806002140E-2
6.142984168E0,1.272740602E0,3.488473892E-1,-1.543872356E-1
6.147880470E0,1.276117206E0,3.686981201E-1,-1.750932932E-1
6.152776824E0,1.307599068E0,3.717193604E-1,-1.524686813E-1
6.157673179E0,1.357516766E0,3.817920685E-1,-9.824240208E-2
6.162569481E0,1.423593760E0,3.223247528E-1,1.198149920E-1
6.167465835E0,1.604408264E0,2.436161041E-1,4.547194242E-1
6.172362189E0,1.651381254E0,9.538459778E-2,6.921252012E-1
6.177258491E0,1.792053699E0,9.116172791E-3,9.144917727E-1
6.182154845E0,1.804036856E0,-1.014270782E-1,1.022021890E0
6.187051199E0,1.783227444E0,-1.453857422E-1,9.863642454E-1
6.191947501E0,1.700826406E0,-1.802644730E-1,9.175693989E-1
6.196843856E0,1.645414829E0,-1.701612473E-1,8.177258968E-1
6.201740210E0,1.638610125E0,-2.369747162E-1,8.082875013E-1
6.206636512E0,1.707052112E0,-3.158979416E-1,8.074216843E-1
6.211532866E0,1.827111483E0,-4.306707382E-1,8.720726967E-1
6.216429220E0,1.660971165E0,-3.540840149E-1,8.145542145E-1
6.221325522E0,1.162349820E0,-8.885955811E-2,6.049697399E-1
6.226221876E0,6.941741705E-1,2.331848145E-1,3.691669703E-1
6.231118231E0,3.804268837E-1,4.660911560E-1,2.359325886E-1
6.236014533E0,3.045336008E-1,6.123466492E-1,1.788731813E-1
6.240910887E0,3.374748230E-1,6.506175995E-1,1.549469233E-1
6.245807241E0,5.010126829E-1,6.576509476E-1,2.094970942E-1
6.250722033E0,5.388193130E-1,6.861190796E-1,1.957378387E-1
6.255599897E0,1.705971956E-1,7.623796463E-1,-1.584366560E-1
6.260496251E0,3.103858232E-1,6.211166382E-1,-2.128969431E-1
6.265392554E0,5.445575714E-1,4.325685501E-1,-1.262598038E-1
6.270307085E0,7.825951576E-1,2.542896271E-1,1.562827826E-1
6.275185262E0,9.365555048E-1,8.397006989E-2,4.912638664E-1
6.280081564E0,1.090256929E0,-4.493713379E-2,7.975865602E-1
6.284977918E0,1.224868536E0,-2.018117905E-1,1.085413814E0
6.289874272E0,1.268746376E0,-3.245029449E-1,1.362641692E0
6.294770574E0,1.274723768E0,-4.274463654E-1,1.529536605E0
6.299666929E0,1.269272327E0,-5.561313629E-1,1.579661489E0
6.304563283E0,1.223889589E0,-6.244935989E-1,1.537779450E0
6.309459585E0,1.165271521E0,-6.469535828E-1,1.394979477E0
6.314355939E0,1.074487209E0,-6.092395782E-1,1.204389930E0
6.319270470E0,9.515814185E-1,-5.473508835E-1,1.016629219E0
6.324148595E0,8.398802280E-1,-4.470119476E-1,8.299027681E-1
6.329048387E0,7.248756886E-1,-3.561248779E-1,6.943445206E-1
6.333941304E0,6.232076883E-1,-2.484493256E-1,5.599693060E-1
6.338840679E0,4.964017868E-1,-2.292661667E-1,4.985185862E-1
6.343733960E0,3.944221735E-1,-1.694145203E-1,4.525394440E-1
6.348630314E0,3.456505537E-1,-1.167984009E-1,4.098650217E-1
6.353526616E0,3.306776285E-1,-9.535598755E-2,3.536690474E-1
6.358422970E0,3.372521400E-1,-4.052925110E-2,3.221466541E-1
6.363319324E0,3.508965969E-1,-1.692008972E-2,3.198970556E-1
6.368215626E0,3.786348104E-1,4.483604431E-2,2.822533846E-1
6.373111981E0,3.988380432E-1,1.159753799E-1,2.475072145E-1
6.378008335E0,3.779965639E-1,1.653795242E-1,1.870688200E-1
6.382904637E0,3.375151157E-1,2.121658325E-1,1.225004196E-1
6.387859533E0,3.203908205E-1,2.658739090E-1,5.865454674E-2
6.392697345E0,2.622468472E-1,2.953481674E-1,-8.658528328E-3
6.397593647E0,2.274249792E-1,3.269433975E-1,-6.315374374E-2
6.402490001E0,1.802610159E-1,3.582782745E-1,-1.166315079E-1
6.407386356E0,1.160928011E-1,4.084920883E-1,-1.690498590E-1
6.412282658E0,6.138551235E-2,4.728069305E-1,-2.730511427E-1
6.417179012E0,-7.748365402E-3,5.368728638E-1,-3.401590586E-1
6.422075366E0,-8.176887035E-2,5.791692734E-1,-4.015551805E-1
6.426971668E0,-1.512104273E-1,6.188440323E-1,-4.525216818E-1
6.431868022E0,-3.289598227E-1,5.505485535E-1,-4.569399357E-1
6.436764324E0,-5.675337315E-1,3.910293579E-1,-4.768048525E-1
6.441660679E0,-7.283873558E-1,2.120866776E-1,-5.359467268E-1
6.446557033E0,-8.135832548E-1,8.966445923E-3,-5.549986362E-1
6.451453335E0,-4.007879496E-1,-2.875785828E-1,-3.056753874E-1
6.456349689E0,2.760946751E-2,-5.865173340E-1,-1.457726955E-2
6.461246043E0,2.736240625E-1,-7.491292953E-1,2.133153677E-1
6.466142345E0,2.727909088E-1,-7.516498566E-1,3.826173544E-1
6.471038699E0,1.828256845E-1,-6.851673126E-1,5.697180033E-1
6.475935054E0,3.205239773E-2,-5.737199783E-1,7.242497206E-1
6.480831356E0,-9.362447262E-2,-4.986448288E-1,7.647013664E-1
6.485727710E0,-1.009298563E-1,-4.645700455E-1,7.577229738E-1
6.490624064E0,-3.266549110E-2,-4.832563400E-1,7.054173946E-1
6.495520366E0,1.090346575E-1,-5.401144028E-1,6.096700430E-1
6.500416720E0,2.262021303E-1,-5.918941498E-1,4.889326096E-1
6.505313074E0,2.541878223E-1,-5.093822479E-1,3.521310091E-1
6.510209376E0,4.905271530E-2,-2.903270721E-1,1.196215153E-1
6.515105731E0,-2.414551973E-1,-5.446243286E-2,-8.259689808E-2
6.520002085E0,-3.998377323E-1,8.108806610E-2,-3.126024008E-1
6.524898387E0,-2.991689444E-1,5.195808411E-2,-4.055417776E-1
6.529794741E0,-1.450457573E-1,2.575302124E-2,-3.327085972E-1
6.534691095E0,-1.384814978E-1,-1.910018921E-2,-3.189058304E-1
6.539605626E0,-1.601821184E-1,-2.285480499E-2,-2.423684597E-1
6.544483751E0,-2.658594847E-1,4.067993164E-2,-1.444103718E-1
6.549398231E0,-3.386727571E-1,9.721755981E-2,-4.908978939E-2
6.554276408E0,-2.977710962E-1,1.204319000E-1,7.669949532E-2
6.559172762E0,-2.962374687E-1,1.294822693E-1,2.186535597E-1
6.564069064E0,-3.390066624E-1,1.769437790E-1,3.576226234E-1
6.568968856E0,-3.974516392E-1,1.647005081E-1,4.505736828E-1
6.573861772E0,-3.781472445E-1,1.167440414E-1,4.809697866E-1
6.578758074E0,-3.621045351E-1,6.423950195E-2,4.156193733E-1
6.583654429E0,-3.372741938E-1,4.542922974E-2,3.409974575E-1
6.588568960E0,-3.104673624E-1,-1.861858368E-2,3.053463697E-1
6.593447085E0,-2.023938894E-1,-8.718013763E-2,1.990020275E-1
6.598343439E0,-1.395891905E-1,-1.434736252E-1,1.130565405E-1
6.603239793E0,-1.818876266E-1,-1.708374023E-1,2.375721931E-3
6.608136095E0,-1.937671900E-1,-2.440795898E-1,-5.594444275E-2
6.613032449E0,-1.531950235E-1,-3.094758987E-1,-1.286342144E-1
6.617928751E0,-1.819201708E-1,-3.410396576E-1,-1.204278469E-1
6.622825106E0,-1.417375803E-1,-3.200883865E-1,-9.837365150E-2
6.627721460E0,-9.972107410E-2,-2.233676910E-1,4.236340523E-3
6.632617762E0,-1.035232544E-1,-1.536817551E-1,1.420121193E-1
6.637514116E0,-7.450735569E-2,-1.322240829E-1,2.602998018E-1
6.642410470E0,-2.699184418E-2,-5.883884430E-2,2.879990339E-1
6.647306772E0,8.294224739E-3,-4.075717926E-2,2.758113146E-1
6.652203126E0,1.262938976E-2,-2.528190613E-2,2.622332573E-1
6.657099481E0,-1.360154152E-2,6.597518921E-3,2.331769466E-1
6.661995783E0,-5.587339401E-2,7.372283936E-2,1.651628017E-1
6.666892137E0,-3.567194939E-2,1.330337524E-1,9.673094749E-2
6.671788491E0,-2.956819534E-2,1.845531464E-1,8.743643761E-2
6.676684793E0,-1.378619671E-2,1.950683594E-1,9.892809391E-2
6.681581147E0,-2.648711205E-3,1.625270844E-1,1.858134270E-1
6.686477501E0,-6.028914452E-2,9.676170349E-2,2.739055157E-1
6.691373804E0,-1.055183411E-1,3.602504730E-2,3.987782001E-1
6.696270158E0,-1.194686890E-1,-7.881164551E-3,5.935285091E-1
6.701166460E0,-1.641947031E-1,-6.837368011E-2,7.319238186E-1
6.706062814E0,-1.897227764E-1,-1.453313828E-1,8.500417471E-1
6.710959168E0,-2.292923927E-1,-2.005472183E-1,8.764665127E-1
6.715855470E0,-1.994767189E-1,-2.459812164E-1,7.878968716E-1
6.720751824E0,-1.481233835E-1,-2.839689255E-1,6.773588657E-1
6.725648179E0,-1.132655144E-1,-3.334732056E-1,5.612293482E-1
6.730544481E0,-9.951519966E-2,-3.730001450E-1,5.010883808E-1
6.735440835E0,-8.291625977E-2,-3.907194138E-1,5.437237024E-1
6.740355366E0,-5.166339874E-2,-4.081716537E-1,5.789717436E-1
6.745233491E0,1.551067829E-2,-4.253101349E-1,6.397836208E-1
6.750147970E0,2.595567703E-2,-4.302129745E-1,6.214418411E-1
6.755026147E0,3.944432735E-2,-4.300537109E-1,6.167070866E-1
6.759922501E0,3.470635414E-2,-3.536434174E-1,6.256011724E-1
6.764818856E0,-7.091999054E-3,-2.348518372E-1,6.835848093E-1
6.769733647E0,-6.685841084E-2,-1.192035675E-1,7.524347305E-1
6.774611512E0,-7.124805450E-2,-1.148223877E-2,7.939624786E-1
6.779507866E0,-6.356287003E-2,4.324626923E-2,8.036386967E-1
6.784404168E0,-1.797056198E-2,3.593921661E-2,8.050907850E-1
6.789318699E0,6.281197071E-2,2.737045288E-3,8.267213106E-1
6.794196876E0,1.140609980E-1,-2.294921875E-2,9.227781296E-1
6.799093179E0,8.362388611E-2,2.759933472E-2,1.040624380E0
6.803989533E0,1.462817192E-2,1.275730133E-1,1.108876586E0
6.808889168E0,-1.424968243E-2,2.100772858E-1,1.132709980E0
6.813782189E0,3.476965427E-2,2.444181442E-1,1.112501144E0
6.818678543E0,7.588911057E-2,2.025899887E-1,1.000977159E0
6.823574845E0,1.235007048E-1,1.588678360E-1,8.366949558E-1
6.828471199E0,1.587687731E-1,7.768344879E-2,7.294120789E-1
6.833367554E0,1.938395500E-1,-4.062366486E-2,6.359809637E-1
6.838361460E0,1.669174433E-1,-1.340122223E-1,5.537971258E-1
6.843160158E0,7.314705849E-2,-1.078748703E-1,5.352027416E-1
6.848056512E0,-5.884885788E-3,-7.950210571E-2,5.988374949E-1
6.852952866E0,-3.478431702E-2,-4.659557343E-2,6.754717827E-1
6.857849220E0,-1.207827330E-1,9.811401367E-3,6.913865805E-1
6.862745522E0,-1.542268991E-1,4.442214966E-2,6.588209867E-1
6.867641876E0,-1.330397129E-1,1.001758575E-1,6.613429785E-1
6.872538231E0,-1.052675247E-1,1.103391647E-1,7.442314625E-1
6.877434533E0,-2.570581436E-2,1.631164551E-1,8.240702152E-1
6.882330887E0,7.430326939E-2,1.750144958E-1,8.963738680E-1
6.887227189E0,1.445727348E-1,1.653490067E-1,9.824726582E-1
6.892123543E0,1.636797190E-1,1.864881516E-1,1.053619862E0
6.897019897E0,1.911231279E-1,2.191209793E-1,1.117069602E0
6.901916199E0,2.979378700E-1,2.227487564E-1,1.161165714E0
6.906812554E0,3.623772860E-1,2.189779282E-1,1.138570547E0
6.911708908E0,4.347498417E-1,2.292776108E-1,1.049748421E0
6.916605210E0,5.151549578E-1,2.749290466E-1,8.762466908E-1
6.921501564E0,6.252567768E-1,3.272562027E-1,6.684235334E-1
6.926397866E0,7.366590500E-1,3.245563507E-1,4.336290359E-1
6.931294220E0,8.426072598E-1,3.029603958E-1,3.027493954E-1
6.936190574E0,8.909010887E-1,2.910785675E-1,2.229181528E-1
6.941086876E0,8.414961100E-1,3.124971390E-1,1.512215137E-1
6.945983231E0,7.044883966E-1,3.288812637E-1,9.964656830E-2
6.950879585E0,6.085989475E-1,3.164682388E-1,5.627810955E-2
6.955775887E0,5.678672791E-1,2.707433701E-1,6.162834167E-2
6.960690418E0,5.916169882E-1,1.635084152E-1,4.430043697E-2
6.965568543E0,6.345092058E-1,3.093242645E-2,-2.864742279E-2
6.970464897E0,5.278483629E-1,-4.839992523E-2,-1.616460085E-1
6.975361251E0,3.678212166E-1,-1.057844162E-1,-2.925901413E-1
6.980257554E0,2.927964926E-1,-1.793470383E-1,-3.384023905E-1
6.985153908E0,3.024644852E-1,-2.783842087E-1,-3.566905260E-1
6.990050262E0,3.062448502E-1,-3.432626724E-1,-3.548434973E-1
6.994946564E0,2.544130087E-1,-4.027290344E-1,-3.425962925E-1
6.999842918E0,2.471522093E-1,-4.093513489E-1,-3.627089262E-1
7.004739220E0,2.462103367E-1,-3.778018951E-1,-3.649991751E-1
7.009653751E0,2.849336863E-1,-3.629837036E-1,-4.516046047E-1
7.014531929E0,3.083885908E-1,-3.101148605E-1,-5.341820717E-1
7.019446460E0,2.810000181E-1,-2.694034576E-1,-5.888652802E-1
7.024324585E0,2.076529264E-1,-2.051715851E-1,-6.159712076E-1
7.029220887E0,1.026175022E-1,-1.390447617E-1,-6.323308945E-1
7.034117241E0,6.191968918E-3,-6.395435333E-2,-6.666320562E-1
7.039017866E0,-8.907091618E-2,2.711868286E-2,-6.309673786E-1
7.043909897E0,-1.740175486E-1,1.031188965E-1,-5.496791601E-1
7.048806251E0,-2.251091003E-1,1.309213638E-1,-5.039005280E-1
7.053702606E0,-3.021332026E-1,1.513128281E-1,-4.462189674E-1
7.058598908E0,-3.671278954E-1,1.904754639E-1,-4.507279396E-1
7.063495262E0,-4.179044962E-1,1.817970276E-1,-4.744690657E-1
7.068391564E0,-4.855977297E-1,1.802978516E-1,-5.224021673E-1
7.073287918E0,-4.656324387E-1,1.930732727E-1,-5.709160566E-1
7.078184272E0,-5.201239586E-1,1.654233932E-1,-6.558095813E-1
7.083080574E0,-5.369185209E-1,1.451549530E-1,-7.506697178E-1
7.087976929E0,-5.090982914E-1,3.012657166E-2,-8.078718185E-1
7.092873283E0,-4.535863400E-1,-2.454757690E-2,-8.609613180E-1
7.097769585E0,-5.012021065E-1,-5.021381378E-2,-1.019415736E0
7.102665939E0,-4.421091080E-1,-9.220314026E-2,-9.928478003E-1
7.107562241E0,-3.865311146E-1,-1.100349426E-1,-8.137807846E-1
7.112458595E0,-3.321204185E-1,-1.514101028E-1,-5.428739786E-1
7.117354949E0,-2.074253559E-1,-2.540864944E-1,-3.232768774E-1
7.122251251E0,-1.266431808E-1,-3.153858185E-1,-2.234630585E-1
7.127147606E0,-1.200842857E-1,-3.522233963E-1,-2.187980413E-1
7.132043908E0,-1.729540825E-1,-3.956680298E-1,-2.326118946E-1
7.136940262E0,-1.897218227E-1,-4.029197693E-1,-2.528393269E-1
7.141836616E0,-1.585834026E-1,-4.383449554E-1,-2.555167675E-1
7.146732918E0,-1.724939346E-1,-4.945955276E-1,-2.287713289E-1
7.151629272E0,-1.931946278E-1,-5.596418381E-1,-1.942287683E-1
7.156525574E0,-2.254636288E-1,-6.191911697E-1,-1.756205559E-1
7.161421929E0,-2.789049149E-1,-6.163492203E-1,-1.846439838E-1
7.166318283E0,-3.603775501E-1,-6.228551865E-1,-1.686996222E-1
7.171214585E0,-4.057092667E-1,-6.101922989E-1,-1.515632868E-1
7.176110939E0,-4.707789421E-1,-6.209344864E-1,-1.076959372E-1
7.181007293E0,-5.095911026E-1,-6.220159531E-1,-8.603477478E-2
7.185903595E0,-5.244863033E-1,-5.847587585E-1,-2.420103550E-2
7.190818126E0,-5.178039074E-1,-5.689716339E-1,2.999520302E-2
7.195696251E0,-5.422823429E-1,-4.886255264E-1,9.845471382E-2
7.200592606E0,-6.411204338E-1,-3.797044754E-1,1.667845249E-1
7.205488960E0,-7.256958485E-1,-2.781515121E-1,2.449471951E-1
7.210403699E0,-7.840418816E-1,-2.102966309E-1,3.069204092E-1
7.215281616E0,-8.207945824E-1,-1.569757462E-1,3.410855532E-1
7.220177918E0,-8.331289291E-1,-9.415531158E-2,3.307031393E-1
7.225074272E0,-8.470633030E-1,-5.049419403E-2,3.118332624E-1
7.229970626E0,-7.832679749E-1,2.912521362E-2,2.677197456E-1
7.234866929E0,-7.417452335E-1,8.262252808E-2,2.030726671E-1
7.239763283E0,-7.103118896E-1,1.364088058E-1,1.631318331E-1
7.244659585E0,-6.218311787E-1,1.977434158E-1,1.308457851E-1
7.249574116E0,-5.503942966E-1,2.523527145E-1,6.044387817E-2
7.254452293E0,-4.701926708E-1,3.001890182E-1,6.596326828E-3
7.259366772E0,-4.292240143E-1,3.628206253E-1,-9.574508667E-2
7.264244949E0,-3.156828880E-1,4.233980179E-1,-2.085368633E-1
7.269141304E0,-1.751883030E-1,4.604406357E-1,-2.962259054E-1
7.274037606E0,-2.970933914E-2,4.786739349E-1,-3.851732016E-1
7.278933960E0,6.780600548E-2,5.378360748E-1,-4.539412260E-1
7.283830262E0,1.576848030E-1,5.588684082E-1,-5.502581596E-1
7.288744793E0,2.422435284E-1,6.135215759E-1,-6.692379713E-1
7.293622970E0,3.043320179E-1,6.537666321E-1,-7.482813597E-1
7.298519272E0,3.319752216E-1,6.867599487E-1,-8.112138510E-1
7.303415626E0,3.392074108E-1,7.123622894E-1,-8.290159702E-1
7.308311929E0,3.570156097E-1,7.424068451E-1,-7.892338037E-1
7.313208283E0,3.782532215E-1,7.528762817E-1,-7.296143770E-1
7.318104637E0,3.574392796E-1,7.532825470E-1,-6.498538256E-1
7.323000939E0,3.593182564E-1,7.436037064E-1,-5.807468891E-1
7.327897293E0,3.600902557E-1,7.429571152E-1,-5.028942823E-1
7.332793595E0,3.695569038E-1,7.753009796E-1,-4.091497660E-1
7.337689949E0,3.207755089E-1,8.573265076E-1,-3.115067482E-1
7.342586304E0,2.377638817E-1,8.646440506E-1,-2.482877970E-1
7.347482606E0,1.611354351E-1,8.953886032E-1,-1.502807140E-1
7.352378960E0,8.857250214E-2,8.730564117E-1,-7.027423382E-2
7.357275262E0,6.800937653E-2,7.810468674E-1,1.782107353E-2
7.362171616E0,2.775120735E-2,6.505947113E-1,8.270680904E-2
7.367067970E0,-3.924560547E-2,5.080938339E-1,8.844232559E-2
7.371964272E0,-1.159036160E-1,3.632240295E-1,4.933464527E-2
7.376860626E0,-2.138743401E-1,1.945514679E-1,-3.458440304E-2
7.381756929E0,-3.232877254E-1,4.524898529E-2,-1.921199560E-1
7.386653283E0,-3.960306644E-1,-9.178161621E-2,-3.109438419E-1
7.391549637E0,-4.365928173E-1,-2.379684448E-1,-3.887743950E-1
7.396445939E0,-4.607765675E-1,-3.975934982E-1,-4.180059433E-1
7.401342293E0,-4.884948730E-1,-5.128707886E-1,-4.114005566E-1
7.406238595E0,-5.220448971E-1,-5.912761688E-1,-3.763767481E-1
7.411134949E0,-5.235092640E-1,-6.544923782E-1,-2.966544628E-1
7.416031304E0,-5.051848888E-1,-6.884107590E-1,-2.534742355E-1
7.420927606E0,-4.863431454E-1,-6.552906036E-1,-2.514185905E-1
7.425823960E0,-4.457633495E-1,-6.435575485E-1,-2.189792395E-1
7.430720262E0,-3.813943863E-1,-5.652132034E-1,-2.015963793E-1
7.435616616E0,-3.267185688E-1,-5.300617218E-1,-2.369738817E-1
7.440512970E0,-2.531683445E-1,-4.784069061E-1,-2.699785233E-1
7.445409272E0,-1.775848866E-1,-3.961887360E-1,-2.909870148E-1
7.450305626E0,-1.000823975E-1,-3.003702164E-1,-3.282736540E-1
7.455201929E0,-7.998585701E-2,-2.029628754E-1,-3.031419516E-1
7.460098283E0,-3.862047195E-2,-6.848430634E-2,-2.964861393E-1
7.464994637E0,-9.443759918E-3,3.621673584E-2,-3.055019379E-1
7.469890939E0,1.482367516E-2,1.256198883E-1,-3.156882524E-1
7.474787293E0,3.412532806E-2,2.092933655E-1,-3.340264559E-1
7.479683595E0,3.179049492E-2,3.228654861E-1,-3.295665979E-1
7.484579949E0,2.202534676E-2,3.948335648E-1,-3.121783733E-1
7.489476304E0,-4.701375961E-3,4.729928970E-1,-2.368351221E-1
7.494372606E0,-2.243757248E-2,4.978771210E-1,-1.801558733E-1
7.499268960E0,-2.197575569E-2,4.746685028E-1,-1.208845377E-1
7.504165262E0,-2.256727219E-2,4.298677444E-1,-9.477269650E-2
7.509061616E0,-3.615808487E-2,3.826704025E-1,-7.091701031E-2
7.513957918E0,-3.877830505E-2,3.307647705E-1,-5.410277843E-2
7.518854272E0,-4.239130020E-2,2.647190094E-1,-3.728938103E-2
7.523750626E0,-3.268361092E-2,2.013368607E-1,-7.296514511E-2
7.528646929E0,-2.146077156E-2,1.383476257E-1,-1.397107840E-1
7.533543283E0,-8.619070053E-3,8.533954620E-2,-1.972186565E-1
7.538537137E0,-3.554344177E-3,7.313442230E-2,-1.862603426E-1
7.543335887E0,-1.817607880E-2,6.103229523E-2,-1.289464235E-1
7.548232293E0,-4.731178284E-2,5.856895447E-2,-8.956539631E-2
7.553128595E0,-4.326057434E-2,4.192638397E-2,-3.697097301E-2
7.558024949E0,-7.738733292E-2,1.760482788E-3,-3.296875954E-2
7.562921251E0,-1.183357239E-1,-9.448051453E-3,-5.577623844E-2
7.567817606E0,-1.446559429E-1,-2.992630005E-2,-7.902002335E-2
7.572713960E0,-1.516582966E-1,-9.041881561E-2,-8.381736279E-2
7.577610262E0,-1.609086990E-1,-1.478519440E-1,-1.202715635E-1
7.582506616E0,-2.223074436E-1,-1.927862167E-1,-1.215627193E-1
7.587402918E0,-2.953145504E-1,-2.064723969E-1,-3.306317329E-2
7.592299272E0,-3.895392418E-1,-2.225599289E-1,1.283205748E-1
7.597195574E0,-4.001801014E-1,-2.529373169E-1,2.247269154E-1
7.602091929E0,-3.183002472E-1,-3.141183853E-1,2.498624325E-1
7.606988283E0,-2.703227997E-1,-3.322048187E-1,2.328598499E-1
7.611884585E0,-2.346365452E-1,-3.645515442E-1,1.930828094E-1
7.616780939E0,-2.278347015E-1,-3.588314056E-1,1.378304958E-1
7.621677241E0,-1.688947678E-1,-3.271856308E-1,9.794700146E-2
7.626573595E0,-1.341531277E-1,-2.958955765E-1,4.705560207E-2
7.631469949E0,-7.592797279E-2,-2.411861420E-1,-1.255631447E-2
7.636366251E0,-1.541852951E-3,-1.679296494E-1,-3.130495548E-2
7.641262606E0,6.038665771E-2,-1.355886459E-1,-9.286713600E-2
7.646158908E0,7.192492485E-2,-7.018756866E-2,-1.449098587E-1
7.651055262E0,8.567571640E-2,-9.964942932E-3,-1.426029205E-1
7.655951616E0,9.922194481E-2,4.038524628E-2,-1.363545656E-1
7.660847918E0,8.403587341E-2,9.282875061E-2,-1.286804676E-1
7.665744272E0,8.549618721E-2,1.212310791E-1,-9.104871750E-2
7.670640574E0,5.835390091E-2,1.495170593E-1,-7.586419582E-2
7.675536929E0,5.518507957E-2,1.563301086E-1,-1.136722565E-1
7.680433231E0,4.741644859E-2,1.798515320E-1,-8.521795273E-2
7.685329585E0,2.098631859E-2,1.890707016E-1,-7.626450062E-2
7.690225939E0,-4.765701294E-2,1.935729980E-1,-1.030483246E-1
7.695122241E0,-6.535577774E-2,2.076826096E-1,-6.068885326E-2
7.700018595E0,-6.577110291E-2,1.790618896E-1,-1.135003567E-2
7.704914897E0,-9.402775764E-2,1.437091827E-1,-1.438665390E-2
7.709811251E0,-1.072020531E-1,8.740139008E-2,2.806687355E-2
7.714707606E0,-1.790506840E-1,8.389663696E-2,3.969514370E-2
7.719622085E0,-2.166383266E-1,4.724884033E-2,7.056784630E-2
7.724500262E0,-2.560038567E-1,1.327419281E-2,9.693145752E-2
7.729400210E0,-2.948284149E-1,-2.995967865E-2,1.687488556E-1
7.734292918E0,-3.189523220E-1,-3.491020203E-2,2.476335764E-1
7.739189220E0,-3.167815208E-1,-2.333164215E-2,3.217432499E-1
7.744085574E0,-2.839517593E-1,-1.678752899E-2,3.555225134E-1
7.748985418E0,-3.015933037E-1,1.328468323E-3,4.158183336E-1
7.753878231E0,-3.219218254E-1,2.850055695E-2,4.549523592E-1
7.758774585E0,-3.402321339E-1,6.464481354E-2,4.326719046E-1
7.763670887E0,-3.921420574E-1,1.239252090E-1,3.708944321E-1
7.768567241E0,-4.062395096E-1,1.610250473E-1,3.292431831E-1
7.773463543E0,-4.254958630E-1,1.927938461E-1,2.575695515E-1
7.778359897E0,-4.284667969E-1,1.789417267E-1,1.916861534E-1
7.783256251E0,-4.151661396E-1,1.317663193E-1,1.481056213E-1
7.788250106E0,-3.880035877E-1,9.668922424E-2,8.627498150E-2
7.793048856E0,-3.707904816E-1,4.758358002E-2,6.059753895E-2
7.797945210E0,-3.682556152E-1,8.293151855E-3,4.225003719E-2
7.802841564E0,-3.495011330E-1,-3.310775757E-2,1.428055763E-2
7.807737918E0,-3.265488148E-1,-6.233215332E-2,-1.149761677E-2
7.812634220E0,-3.326983452E-1,-6.997108459E-2,-3.758955002E-2
7.817530574E0,-3.296625614E-1,-7.992649078E-2,-7.824945450E-2
7.822426876E0,-2.889823914E-1,-8.268737793E-2,-7.153224945E-2
7.827323231E0,-2.654209137E-1,-7.592391968E-2,-6.751251221E-2
7.832219533E0,-2.563936710E-1,-8.347988129E-2,-6.595468521E-2
7.837115887E0,-2.568979263E-1,-7.912635803E-2,-6.185781956E-2
7.842012241E0,-2.763073444E-1,-1.152181625E-1,-9.303271770E-2
7.846908543E0,-3.286187649E-1,-8.932399750E-2,-1.020988226E-1
7.851804897E0,-3.565006256E-1,-1.254024506E-1,-8.205986023E-2
7.856701199E0,-3.839228153E-1,-1.327352524E-1,-3.785717487E-2
7.861597554E0,-4.085900784E-1,-1.495866776E-1,1.613235474E-2
7.866493856E0,-4.686567783E-1,-1.806411743E-1,9.391629696E-2
7.871390210E0,-5.068542957E-1,-1.854047775E-1,1.477304697E-1
7.876286564E0,-5.259034634E-1,-2.068576813E-1,1.871403456E-1
7.881182866E0,-5.259807110E-1,-2.424592972E-1,2.310994864E-1
7.886079220E0,-5.071873665E-1,-2.469396591E-1,2.556960583E-1
7.890993751E0,-4.935057163E-1,-2.680597305E-1,3.417866230E-1
7.895871876E0,-4.967093468E-1,-2.913732529E-1,3.366762400E-1
7.900768179E0,-4.501137733E-1,-2.693634033E-1,3.266215324E-1
7.905664533E0,-4.277226925E-1,-2.759923935E-1,3.021187782E-1
7.910560887E0,-3.912205696E-1,-2.919883728E-1,3.012731075E-1
7.915457189E0,-3.406572342E-1,-2.840337753E-1,3.453696966E-1
7.920371720E0,-3.212494850E-1,-2.784862518E-1,3.369047642E-1
7.925249845E0,-2.995119095E-1,-2.730045319E-1,3.311724663E-1
7.930164376E0,-3.134756088E-1,-2.272567749E-1,3.520058393E-1
7.935042501E0,-2.821564674E-1,-1.961946487E-1,3.279515505E-1
7.939938856E0,-2.225720882E-1,-1.725778580E-1,3.234825134E-1
7.944835158E0,-1.398100853E-1,-1.278772354E-1,3.193839788E-1
7.949749689E0,-8.160638809E-2,-1.097364426E-1,3.178626299E-1
7.954627866E0,-1.465606689E-2,-8.707523346E-2,3.139433861E-1
7.959524168E0,2.050304413E-2,-5.044555664E-2,3.146579266E-1
7.964420522E0,9.290337563E-2,-1.657104492E-2,3.173972368E-1
7.969316824E0,1.429216862E-1,3.599548340E-2,2.981904745E-1
7.974213179E0,1.683716774E-1,5.726337433E-2,2.689781189E-1
7.979109481E0,1.717677116E-1,1.116123199E-1,2.415289879E-1
7.984005835E0,1.745381355E-1,1.560182571E-1,2.323095798E-1
7.988902189E0,1.933212280E-1,1.763381958E-1,1.983761787E-1
7.993798491E0,2.209403515E-1,1.846666336E-1,1.755512953E-1
7.998694845E0,2.455508709E-1,1.739826202E-1,1.330550909E-1
8.003591147E0,2.436361313E-1,1.492080688E-1,9.028625488E-2
8.008487501E0,2.177691460E-1,1.294317245E-1,7.820105553E-2
8.013383804E0,1.894319057E-1,9.794807434E-2,8.238410950E-2
8.018280158E0,1.371486187E-1,8.805942535E-2,6.469035149E-2
8.023176512E0,1.134066582E-1,4.736709595E-2,7.993268967E-2
8.028072814E0,1.013844013E-1,6.992340088E-3,4.244387150E-2
8.032969168E0,1.010873318E-1,-4.495334625E-2,2.884829044E-2
8.037865470E0,1.480202675E-1,-8.940601349E-2,6.283760071E-2
8.042761824E0,1.707184315E-1,-9.319114685E-2,7.539558411E-2
8.047658126E0,1.694381237E-1,-6.853199005E-2,7.872462273E-2
8.052554481E0,1.515529156E-1,-3.943920135E-2,8.264732361E-2
8.057450835E0,1.742386818E-1,-1.783847809E-2,9.919166565E-2
8.062347137E0,2.134840488E-1,-6.038665771E-3,1.022309065E-1
8.067243491E0,2.738623619E-1,1.978302002E-2,1.155571938E-1
8.072139793E0,2.932975292E-1,5.471229553E-2,1.129610538E-1
8.077036147E0,2.720382214E-1,1.057777405E-1,1.040370464E-1
8.081932449E0,2.173447609E-1,1.633167267E-1,7.206070423E-2
8.086828804E0,1.887073517E-1,2.082767487E-1,4.081511497E-2
8.091725106E0,1.977994442E-1,2.265386581E-1,7.843017578E-3
8.096621460E0,2.277004719E-1,2.136020660E-1,-1.743125916E-2
8.101517814E0,2.331483364E-1,2.172155380E-1,-2.082324028E-2
8.106414116E0,2.403726578E-1,1.612997055E-1,-5.975222588E-2
8.111310470E0,2.351529598E-1,1.342496872E-1,-9.854030609E-2
8.116206772E0,2.128283978E-1,1.121435165E-1,-1.493594646E-1
8.121103126E0,1.902985573E-1,9.736347198E-2,-1.718041897E-1
8.125999429E0,1.628792286E-1,4.950237274E-2,-1.969547272E-1
8.130895783E0,1.666390896E-1,-2.868652344E-2,-2.342064381E-1
8.135792085E0,1.422369480E-1,-5.141448975E-2,-2.573001385E-1
8.140688439E0,7.109713554E-2,-2.150440216E-2,-2.828165293E-1
8.145584793E0,-1.291131973E-2,-1.086235046E-3,-2.654732466E-1
8.150481095E0,-1.070914268E-1,2.892303467E-2,-2.600132227E-1
8.155377449E0,-1.755387783E-1,3.995704651E-2,-2.352156639E-1
8.160292189E0,-2.302429676E-1,3.455352783E-2,-2.030346394E-1
8.165170106E0,-2.545225620E-1,2.237510681E-2,-1.278451681E-1
8.170084585E0,-3.034648895E-1,-2.034091949E-2,-5.265259743E-2
8.174962762E0,-3.032824993E-1,-5.502700806E-3,5.575990677E-2
8.179859064E0,-3.023612499E-1,-4.531192780E-2,1.900311708E-1
8.184755418E0,-2.843456268E-1,-9.188365936E-2,2.928537130E-1
8.189669949E0,-2.234480381E-1,-1.333532333E-1,3.337054253E-1
8.194548074E0,-1.321074963E-1,-1.389312744E-1,3.058522940E-1
8.199444429E0,-1.057190895E-1,-9.948730469E-2,2.076008320E-1
8.204340731E0,-1.130256653E-1,-3.203487396E-2,1.130254269E-1
8.209237085E0,-9.922170639E-2,4.416656494E-2,7.204222679E-2
8.214133387E0,-8.126926422E-2,9.814643860E-2,6.276917458E-2
8.219029741E0,-8.295321465E-2,1.419811249E-1,7.297873497E-2
8.223926043E0,-5.438899994E-2,1.733531952E-1,6.447160244E-2
8.228822397E0,-5.286264420E-2,1.805162430E-1,6.573152542E-2
8.233718751E0,-6.839275360E-3,1.684370041E-1,2.211344242E-2
8.238618335E0,1.221942902E-2,1.396989822E-1,-3.995740414E-2
8.243511408E0,4.266643524E-2,8.738231659E-2,-1.062145233E-1
8.248407710E0,7.256627083E-2,5.442523956E-2,-1.908506155E-1
8.253304064E0,7.354044914E-2,2.408981323E-2,-2.391804457E-1
8.258200366E0,1.195495129E-1,-3.922653198E-2,-2.776185274E-1
8.263096720E0,1.319699287E-1,-8.060646057E-2,-2.896894217E-1
8.267993074E0,1.372809410E-1,-8.595180511E-2,-2.756938934E-1
8.272889376E0,1.116173267E-1,-1.030616760E-1,-2.645318508E-1
8.277785679E0,8.366680145E-2,-1.271018982E-1,-2.300859690E-1
8.282682033E0,4.637527466E-2,-1.627273560E-1,-2.154247761E-1
8.287675939E0,8.272790909E-2,-1.813964844E-1,-1.658142805E-1
8.292474637E0,7.634425163E-2,-2.328901291E-1,-1.033438444E-1
8.297371043E0,7.933092117E-2,-2.340564728E-1,-8.596658707E-3
8.302267345E0,8.582592010E-3,-2.422657013E-1,7.536256313E-2
8.307163699E0,-4.256391525E-2,-2.479600906E-1,1.440265179E-1
8.312060001E0,-8.142256737E-2,-2.416810989E-1,1.738604307E-1
8.316956356E0,-9.839677811E-2,-2.662076950E-1,1.508817673E-1
8.321852710E0,-1.196150780E-1,-2.880010605E-1,1.420078278E-1
8.326749012E0,-1.259405613E-1,-2.856864929E-1,1.233319044E-1
8.331645314E0,-1.459162235E-1,-2.736806870E-1,1.209894419E-1
8.336541668E0,-1.342153549E-1,-2.662820816E-1,1.134508848E-1
8.341438022E0,-1.338860989E-1,-2.491979599E-1,7.449853420E-2
8.346334324E0,-1.069772243E-1,-2.059068680E-1,2.330517769E-2
8.351230679E0,-9.664463997E-2,-1.912565231E-1,1.738071442E-4
8.356126981E0,-6.731200218E-2,-1.267147064E-1,-3.780651093E-2
8.361023335E0,-3.820061684E-2,-8.156681061E-2,-7.151257992E-2
8.365919637E0,2.387118340E-2,-6.043338776E-2,-7.709336281E-2
8.370834168E0,1.043806076E-1,-3.466510773E-2,-9.968400002E-2
8.375712293E0,1.580865383E-1,-4.313468933E-3,-1.152642965E-1
8.380626824E0,1.780090332E-1,5.667591095E-2,-1.143752337E-1
8.385505001E0,1.740732193E-1,1.171875000E-1,-1.278294325E-1
8.390401304E0,1.725068092E-1,1.653614044E-1,-1.176807880E-1
8.395297658E0,2.041683197E-1,2.226848602E-1,-9.609115124E-2
8.400212189E0,2.261695862E-1,2.463741302E-1,-7.737100124E-2
8.405090314E0,2.648544312E-1,2.580957413E-1,-3.290951252E-2
8.410004793E0,2.987298965E-1,2.959241867E-1,3.953254223E-2
8.414882970E0,3.160256147E-1,3.287353516E-1,8.783209324E-2
8.419797501E0,2.645900249E-1,3.209209442E-1,1.075980663E-1
8.424675626E0,2.542089224E-1,3.012828827E-1,1.253255606E-1
8.429590106E0,2.228546143E-1,2.793979645E-1,1.388120651E-1
8.434468283E0,2.088029385E-1,2.624139786E-1,1.458556652E-1
8.439382762E0,1.571965218E-1,2.621068954E-1,1.015348434E-1
8.444260939E0,1.064548492E-1,2.308855057E-1,7.512521744E-2
8.449157293E0,7.320070267E-2,1.998748779E-1,4.272747040E-2
8.454053595E0,4.779553413E-2,1.643075943E-1,1.635825634E-2
8.458949949E0,1.350307465E-2,1.265888214E-1,1.257371902E-2
8.463846251E0,-1.543188095E-2,6.536865234E-2,2.594709396E-3
8.468742606E0,-3.212356567E-2,1.879978180E-2,2.200460434E-2
8.473638908E0,-7.958006859E-2,-4.649543762E-2,3.959774971E-3
8.478535262E0,-6.983160973E-2,-6.862926483E-2,1.742446423E-2
8.483431564E0,-8.421301842E-2,-7.880973816E-2,4.996716976E-2
8.488327918E0,-9.891700745E-2,-4.625892639E-2,4.658162594E-2
8.493224272E0,-9.967494011E-2,4.056549072E-2,5.488407612E-2
8.498120574E0,-5.828070641E-2,9.337043762E-2,8.403551579E-2
8.503016929E0,-1.764392853E-2,1.552200317E-1,8.157765865E-2
8.507913231E0,4.366207123E-2,2.284336090E-1,7.861125469E-2
8.512809585E0,6.141471863E-2,2.701778412E-1,8.233177662E-2
8.517705887E0,5.972290039E-2,3.329420090E-1,9.273767471E-2
8.522602241E0,6.943845749E-2,3.191661835E-1,1.098035574E-1
8.527498543E0,6.663560867E-2,2.887868881E-1,1.312984228E-1
8.532394897E0,6.330919266E-2,2.372045517E-1,1.690407991E-1
8.537291199E0,6.898140907E-2,1.408433914E-1,1.897548437E-1
8.542187554E0,4.312515259E-2,7.128429413E-2,2.149243355E-1
8.547083856E0,3.109526634E-2,2.186775208E-3,2.302683592E-1
8.551980210E0,-2.407360077E-2,-8.541297913E-2,2.002357244E-1
8.556876512E0,-6.969237328E-2,-1.343669891E-1,1.703615189E-1
8.561772866E0,-1.223144531E-1,-2.043237686E-1,1.311827898E-1
8.566669220E0,-1.508202553E-1,-2.570734024E-1,5.189538002E-2
8.571565522E0,-2.193646431E-1,-3.069934845E-1,4.184961319E-3
8.576461876E0,-2.325601578E-1,-3.517055511E-1,-3.125226498E-2
8.581358179E0,-2.405469418E-1,-3.793678284E-1,-5.673801899E-2
8.586254533E0,-2.386875153E-1,-3.948945999E-1,-6.281268597E-2
8.591150835E0,-2.318220139E-1,-3.912725449E-1,-6.146442890E-2
8.596047189E0,-2.129414082E-1,-3.758077621E-1,-7.170951366E-2
8.600943491E0,-1.774413586E-1,-3.675937653E-1,-9.823787212E-2
8.605839845E0,-1.825470924E-1,-3.286123276E-1,-9.101712704E-2
8.610736147E0,-1.732749939E-1,-2.781009674E-1,-1.097205877E-1
8.615632501E0,-1.546041965E-1,-1.639251709E-1,-1.115329266E-1
8.620546981E0,-1.503193378E-1,-1.029462814E-1,-7.517814636E-2
8.625425158E0,-1.270523071E-1,1.686382294E-2,-1.996886730E-2
8.630339637E0,-7.559418678E-2,1.095180511E-1,8.480739594E-2
8.635217814E0,-5.543494225E-2,1.918678284E-1,1.723552942E-1
8.640114116E0,9.548902512E-3,2.473526001E-1,2.950927019E-1
8.645010470E0,4.300332069E-2,3.402891159E-1,4.076600075E-1
8.649906824E0,9.261679649E-2,4.014968872E-1,5.006865263E-1
8.654803126E0,1.654580832E-1,4.193859100E-1,5.648589134E-1
8.659699481E0,1.710201502E-1,4.275360107E-1,5.956622362E-1
8.664595783E0,1.928942204E-1,4.093923569E-1,5.625405312E-1
8.669510314E0,1.952797174E-1,3.936614990E-1,5.395786762E-1
8.674388439E0,2.092041969E-1,3.447494507E-1,4.789780378E-1
8.679284793E0,2.392139435E-1,2.700519562E-1,4.260313511E-1
8.684181095E0,2.590764761E-1,2.030763626E-1,3.637495041E-1
8.689095626E0,2.713240385E-1,1.414089203E-1,2.826356888E-1
8.693973751E0,2.761008739E-1,6.132507324E-2,2.134073973E-1
8.698870106E0,2.924833298E-1,-2.038764954E-2,1.511573792E-1
8.703766408E0,2.609785795E-1,-5.385398865E-2,1.028726101E-1
8.708662762E0,2.009649277E-1,-8.934402466E-2,6.607997417E-2
8.713559064E0,1.721545458E-1,-1.434316635E-1,4.306495190E-2
8.718455418E0,1.507366896E-1,-1.850986481E-1,4.818069935E-2
8.723351720E0,1.698950529E-1,-2.168331146E-1,7.178831100E-2
8.728248074E0,1.533622742E-1,-2.482242584E-1,8.771979809E-2
8.733144429E0,1.132771969E-1,-2.318115234E-1,9.141039848E-2
8.738040731E0,4.264938831E-2,-1.941356659E-1,9.491801262E-2
8.742937085E0,-2.492642403E-2,-1.876182556E-1,1.340595484E-1
8.747833387E0,-5.141091347E-2,-1.811532974E-1,1.779112816E-1
8.752729741E0,-4.173600674E-2,-1.723728180E-1,2.433022261E-1
8.757626043E0,-4.124343395E-2,-1.992731094E-1,3.039438725E-1
8.762522397E0,-1.652491093E-2,-2.211589813E-1,3.288632631E-1
8.767418699E0,-1.763582230E-2,-2.380380630E-1,3.299891949E-1
8.772315054E0,-1.355481148E-2,-2.285604477E-1,3.262706995E-1
8.777211356E0,-8.978843689E-3,-1.952714920E-1,3.198910952E-1
8.782107710E0,1.976943016E-2,-1.882123947E-1,3.106909990E-1
8.787004012E0,4.405403137E-2,-1.739139557E-1,2.820433378E-1
8.791900366E0,5.438017845E-2,-1.453142166E-1,2.815567255E-1
8.796796668E0,5.557429790E-2,-1.096429825E-1,2.732290030E-1
8.801693022E0,4.521870613E-2,-7.647895813E-2,2.452828884E-1
8.806589324E0,2.810704708E-2,2.305412292E-2,2.310134172E-1
8.811485679E0,6.532788277E-3,6.490325928E-2,2.565503120E-1
8.816381981E0,3.042662144E-2,1.397552490E-1,2.765803337E-1
8.821278335E0,6.366908550E-2,1.831970215E-1,3.102427721E-1
8.826174637E0,5.858790874E-2,2.524204254E-1,3.457586765E-1
8.831089168E0,7.702660561E-2,2.806816101E-1,3.951022625E-1
8.835967345E0,7.359373569E-2,2.920179367E-1,4.393601418E-1
8.840863647E0,6.484842300E-2,3.150424957E-1,4.357130527E-1
8.845760001E0,4.837787151E-2,3.164072037E-1,3.963941336E-1
8.850674481E0,6.949687004E-2,3.010673523E-1,3.525825739E-1
8.855552658E0,8.050405979E-2,2.620487213E-1,2.901148796E-1
8.860448960E0,6.956374645E-2,2.161827087E-1,2.564886808E-1
8.865345314E0,9.878206253E-2,1.683044434E-1,2.230049372E-1
8.870259845E0,1.346441507E-1,1.231966019E-1,1.896189451E-1
8.875137970E0,1.608424187E-1,7.851791382E-2,1.682472229E-1
8.880052449E0,1.821476221E-1,6.987953186E-2,1.064573526E-1
8.884930626E0,1.749422550E-1,5.425930023E-2,9.484398365E-2
8.889845106E0,1.725678444E-1,1.744079590E-2,8.552074432E-2
8.894723283E0,1.490360498E-1,-9.539604187E-3,9.530615807E-2
8.899637762E0,1.613576412E-1,-6.951618195E-2,6.703674793E-2
8.904515939E0,1.737973690E-1,-1.076250076E-1,6.301784515E-2
8.909430470E0,1.743692160E-1,-1.145858765E-1,7.367265224E-2
8.914308595E0,1.847099066E-1,-1.428680420E-1,7.516026497E-2
8.919204897E0,1.453632116E-1,-1.471834183E-1,4.138720036E-2
8.924101251E0,9.241032600E-2,-1.609754562E-1,1.238942146E-3
8.928997554E0,5.216729641E-2,-1.509141922E-1,-2.148187160E-2
8.933893908E0,3.179323673E-2,-1.670427322E-1,-1.264083385E-2
8.938793699E0,-6.814122200E-3,-1.996459961E-1,-8.083462715E-3
8.943686564E0,-6.363296509E-2,-2.034997940E-1,-2.988934517E-3
8.948582866E0,-1.196101904E-1,-2.168464661E-1,4.297995567E-2
8.953479220E0,-1.583191156E-1,-2.229957581E-1,1.198587418E-1
8.958375522E0,-1.991205215E-1,-2.481460571E-1,2.083159685E-1
8.963271876E0,-2.135823965E-1,-2.612628937E-1,2.534878254E-1
8.968168231E0,-2.304062843E-1,-2.529201508E-1,2.816857100E-1
8.973064533E0,-2.164570093E-1,-2.565479279E-1,3.096041679E-1
8.977960887E0,-2.073661089E-1,-2.435121536E-1,3.134814501E-1
8.982857189E0,-1.863608360E-1,-2.139148712E-1,2.886248827E-1
8.987753543E0,-1.654708385E-1,-1.417865753E-1,2.613872290E-1
8.992649845E0,-1.661641598E-1,-1.105842590E-1,2.578589916E-1
8.997546199E0,-9.326100349E-2,-1.080923080E-1,2.636017799E-1
9.002442501E0,-5.666732788E-2,-9.609031677E-2,2.547680140E-1
9.007338804E0,-4.176449776E-2,-8.415794373E-2,2.529147863E-1
9.012235158E0,-2.476966381E-2,-7.232093811E-2,2.604161501E-1
9.017131512E0,-4.355943203E-2,-8.326530457E-3,2.344398499E-1
9.022027814E0,-8.840727806E-2,3.377914429E-2,2.251386642E-1
9.026924168E0,-8.534991741E-2,5.420589447E-2,1.872410774E-1
9.031820470E0,-7.499349117E-2,3.654575348E-2,2.064083815E-1
9.036716824E0,-8.564710617E-2,4.760646820E-2,2.181897163E-1
9.041613126E0,-9.586644173E-2,2.066040039E-2,1.656562090E-1
9.046509481E0,-9.377014637E-2,-1.233100891E-3,1.490182877E-1
9.051405783E0,-8.184671402E-2,-3.473663330E-2,1.466016769E-1
9.056302137E0,-9.818017483E-2,-7.978534698E-2,1.988360882E-1
9.061198439E0,-8.558094501E-2,-1.101732254E-1,2.387952805E-1
9.066094793E0,-6.333792210E-2,-1.521730423E-1,2.596352100E-1
9.070991095E0,-5.043482780E-2,-1.653289795E-1,2.687286139E-1
9.075887449E0,-3.022408485E-2,-1.498899460E-1,2.258223295E-1
9.080783751E0,-3.843450546E-2,-9.420776367E-2,1.810399294E-1
9.085680106E0,-6.299567223E-2,-2.947807312E-2,1.533552408E-1
9.090594585E0,-2.310359478E-2,3.948020935E-2,9.978640079E-2
9.095472762E0,9.567856789E-3,7.466030121E-2,7.752060890E-2
9.100387241E0,6.352782249E-2,1.261978149E-1,5.543196201E-2
9.105265418E0,9.566724300E-2,2.200517654E-1,7.856571674E-2
9.110179897E0,8.234763145E-2,2.965040207E-1,7.767796516E-2
9.115058074E0,8.556056023E-2,3.580446243E-1,8.156383038E-2
9.119954376E0,1.051052809E-1,4.237718582E-1,7.361876965E-2
9.124850731E0,1.100019217E-1,4.390172958E-1,9.211480618E-2
9.129765210E0,1.026898623E-1,4.540271759E-1,9.424531460E-2
9.134643387E0,1.235963106E-1,4.664335251E-1,8.720779419E-2
9.139557866E0,9.163165092E-2,4.382314682E-1,6.646811962E-2
9.144436043E0,7.374978065E-2,3.792781830E-1,3.203821182E-2
9.149332345E0,7.689905167E-2,3.016996384E-1,4.097831249E-2
9.154228699E0,5.105769634E-2,2.103958130E-1,2.647483349E-2
9.159125001E0,1.077783108E-2,1.411170959E-1,4.325342178E-2
9.164021356E0,-2.007651329E-2,8.892822266E-2,7.681667805E-2
9.168935835E0,-4.615831375E-2,3.472423553E-2,1.127837896E-1
9.173814012E0,-6.966769695E-2,-7.203102112E-3,1.202498674E-1
9.178710314E0,-1.143169403E-1,-1.558780670E-2,1.327233315E-1
9.183606668E0,-1.181029081E-1,-1.773834229E-4,1.453416348E-1
9.188506251E0,-1.336203814E-1,3.221511841E-3,1.438133717E-1
9.193399324E0,-2.106204033E-1,3.270816803E-2,1.495298147E-1
9.198295626E0,-2.394944429E-1,4.770278931E-2,1.599906683E-1
9.203191981E0,-2.277500629E-1,4.357337952E-2,1.632962227E-1
9.208088283E0,-1.899852753E-1,1.335334778E-2,1.856620312E-1
9.212984637E0,-1.715497971E-1,-4.036712646E-2,2.150326967E-1
9.217880939E0,-1.985026598E-1,-7.943058014E-2,2.371691465E-1
9.222777293E0,-1.849958897E-1,-1.015758514E-1,2.639458179E-1
9.227673595E0,-2.074137926E-1,-1.805448532E-1,2.739104033E-1
9.232569949E0,-2.226593494E-1,-1.829071045E-1,2.624877691E-1
9.237466251E0,-2.378466129E-1,-2.232379913E-1,2.534953356E-1
9.242362606E0,-2.267779112E-1,-2.062330246E-1,2.421039343E-1
9.247258908E0,-1.967459917E-1,-2.154521942E-1,2.045551538E-1
9.252155262E0,-1.811757088E-1,-1.841793060E-1,1.717578173E-1
9.257051564E0,-1.963353157E-1,-1.649503708E-1,1.365497112E-1
9.261947918E0,-1.542977095E-1,-1.790494919E-1,1.083920002E-1
9.266844220E0,-1.218663454E-1,-1.858253479E-1,1.039055586E-1
9.271740574E0,-1.037284136E-1,-1.639947891E-1,9.215211868E-2
9.276636876E0,-1.165099144E-1,-1.612911224E-1,8.502125740E-2
9.281533231E0,-9.583735466E-2,-1.324577332E-1,8.494710922E-2
9.286429533E0,-8.951699734E-2,-1.062154770E-1,5.867302418E-2
9.291344012E0,-4.768979549E-2,-1.039457321E-1,6.590843201E-2
9.296222189E0,-5.618107319E-2,-8.511257172E-2,7.799792290E-2
9.301118543E0,-8.152687550E-2,-1.021270752E-1,7.124495506E-2
9.306014845E0,-7.605111599E-2,-1.357069016E-1,6.968462467E-2
9.310911199E0,-6.853163242E-2,-1.619720459E-1,8.273959160E-2
9.315807501E0,-8.972299099E-2,-2.023448944E-1,1.008579731E-1
9.320722033E0,-1.061087847E-1,-2.329587936E-1,1.501085758E-1
9.325600158E0,-1.104345322E-1,-2.443675995E-1,1.874426603E-1
9.330496512E0,-1.264799833E-1,-2.628326416E-1,2.034183741E-1
9.335392814E0,-1.208219528E-1,-2.740058899E-1,2.217518091E-1
9.340307345E0,-9.583699703E-2,-2.755451202E-1,2.352386713E-1
9.345185470E0,-3.726959229E-2,-2.864513397E-1,2.530791759E-1
9.350100001E0,7.129669189E-3,-2.734012604E-1,2.395811081E-1
9.354978126E0,5.655264854E-2,-2.365579605E-1,2.423012257E-1
9.359892658E0,9.900355339E-2,-1.998710632E-1,2.492303848E-1
9.364770783E0,1.321079731E-1,-1.324815750E-1,2.365784645E-1
9.369667137E0,1.510661840E-1,-7.028865814E-2,2.520653009E-1
9.374563439E0,1.534504890E-1,-1.327896118E-2,3.002966642E-1
9.379463439E0,1.558238268E-1,3.856754303E-2,3.144687414E-1
9.384356095E0,1.818300486E-1,9.003639221E-2,3.399512768E-1
9.389270626E0,2.049620152E-1,1.529693604E-1,3.482090235E-1
9.394148751E0,2.251487374E-1,1.655397415E-1,3.701725006E-1
9.399048856E0,2.400059104E-1,2.088937759E-1,3.961963654E-1
9.403941408E0,2.542843223E-1,2.614030838E-1,3.787529469E-1
9.408841304E0,2.917357683E-1,2.873783112E-1,3.728182316E-1
9.413734064E0,3.070282936E-1,2.917919159E-1,3.711571693E-1
9.418630418E0,3.310980797E-1,2.558050156E-1,3.785424232E-1
9.423526720E0,3.329552412E-1,1.844863892E-1,3.854852915E-1
9.428520626E0,3.458520174E-1,1.374702454E-1,3.824726343E-1
9.433319324E0,3.391242027E-1,6.232929230E-2,3.958951235E-1
9.438215731E0,3.339892030E-1,1.151180267E-2,4.136254787E-1
9.443112033E0,3.187278509E-1,-1.042938232E-2,4.309947491E-1
9.448008387E0,3.102521300E-1,-3.934478760E-2,4.220314026E-1
9.452904689E0,3.086585999E-1,-4.192543030E-2,4.321273565E-1
9.457801043E0,3.070089817E-1,-8.246612549E-2,3.804024458E-1
9.462697345E0,3.030488491E-1,-8.228111267E-2,3.670316935E-1
9.467593699E0,2.993580699E-1,-5.592727661E-2,3.227972984E-1
9.472490001E0,2.984387875E-1,-7.245254517E-2,3.096458912E-1
9.477386356E0,2.716368437E-1,-3.891658783E-2,3.011558056E-1
9.482282658E0,2.952935696E-1,-3.880596161E-2,3.494575024E-1
9.487179012E0,3.262975812E-1,-8.610534668E-2,3.877439499E-1
9.492075366E0,3.551583886E-1,-9.493637085E-2,4.089440107E-1
9.496971668E0,3.272583485E-1,-9.411144257E-2,4.297819138E-1
9.501867970E0,3.308284283E-1,-9.322261810E-2,4.241883755E-1
9.506764324E0,3.371005654E-1,-5.429935455E-2,4.375735521E-1
9.511660679E0,3.246690631E-1,-3.703212738E-2,4.366508722E-1
9.516556981E0,3.151627183E-1,1.476287842E-3,4.193458557E-1
9.521453335E0,2.943218946E-1,5.391979218E-2,3.668320179E-1
9.526349637E0,2.883753777E-1,7.505607605E-2,3.317558765E-1
9.531245991E0,2.234374881E-1,1.007289886E-1,2.356716394E-1
9.536142293E0,1.829890609E-1,9.527873993E-2,2.215362787E-1
9.541038647E0,1.193447709E-1,1.016483307E-1,1.678729057E-1
9.545934949E0,1.348828673E-1,6.987190247E-2,1.060184240E-1
9.550831251E0,1.315991282E-1,2.400398254E-2,6.927919388E-2
9.555727606E0,1.596437693E-1,-2.156066895E-2,1.223146915E-2
9.560642137E0,1.546260118E-1,-8.105468750E-2,-3.420209885E-2
9.565520262E0,1.668272614E-1,-1.590814590E-1,-8.683145046E-2
9.570416616E0,1.415473819E-1,-1.961145401E-1,-1.147941351E-1
9.575312918E0,1.337043047E-1,-2.328424454E-1,-1.255084276E-1
9.580227449E0,5.527770519E-2,-2.360219955E-1,-1.476836205E-1
9.585105574E0,-1.251029968E-2,-2.486639023E-1,-1.219367981E-1
9.590020106E0,-4.597860575E-2,-2.683076859E-1,-7.716667652E-2
9.594898231E0,-7.627713680E-2,-2.663888931E-1,-3.502118587E-2
9.599812710E0,-7.722842693E-2,-2.691783905E-1,1.393473148E-2
9.604690887E0,-7.290494442E-2,-2.433567047E-1,-6.634712219E-3
9.609605418E0,-1.106521487E-1,-1.986036301E-1,-3.939163685E-2
9.614483543E0,-1.165954471E-1,-1.255588531E-1,-8.441650867E-2
9.619383387E0,-1.313645840E-1,-3.156852722E-2,-1.250592470E-1
9.624276199E0,-1.526919603E-1,7.841777802E-2,-1.351884604E-1
9.629190731E0,-1.688024998E-1,1.092586517E-1,-9.114217758E-2
9.634068856E0,-1.514732838E-1,1.612720490E-1,-7.411360741E-3
9.638968595E0,-1.319990158E-1,1.629915237E-1,9.935951233E-2
9.643861512E0,-1.343173981E-1,1.147842407E-1,1.864452362E-1
9.648757866E0,-1.725771427E-1,3.603267670E-2,2.588641644E-1
9.653654168E0,-1.563355923E-1,-6.588172913E-2,2.810599804E-1
9.658550522E0,-1.475676298E-1,-1.717395782E-1,2.723414898E-1
9.663446824E0,-1.175285578E-1,-2.885904312E-1,2.613736391E-1
9.668343179E0,-1.422289610E-1,-3.403320312E-1,2.527569532E-1
9.673239481E0,-1.498050690E-1,-3.797111511E-1,2.440577745E-1
9.678135835E0,-1.330134869E-1,-3.830451965E-1,2.565724850E-1
9.683032189E0,-1.156778336E-1,-4.170961380E-1,2.450002432E-1
9.687931981E0,-1.262059212E-1,-4.055986404E-1,2.521312237E-1
9.692824845E0,-1.336078644E-1,-4.011650085E-1,2.516450882E-1
9.697721147E0,-1.355894804E-1,-3.823642731E-1,2.387895584E-1
9.702617501E0,-1.560534239E-1,-3.588294983E-1,2.635865211E-1
9.707513804E0,-1.379843950E-1,-3.567085266E-1,2.781014442E-1
9.712410158E0,-1.174532175E-1,-3.307323456E-1,2.634569407E-1
9.717306460E0,-1.088542938E-1,-3.166952133E-1,2.292090654E-1
9.722202814E0,-1.144151688E-1,-2.812500000E-1,1.755043268E-1
9.727099116E0,-6.988275051E-2,-2.292833328E-1,1.260408163E-1
9.731995470E0,-4.208350182E-2,-1.846675873E-1,6.419062614E-2
9.736891772E0,8.130073547E-5,-1.188325882E-1,1.614308357E-2
9.741788126E0,1.845002174E-2,-1.771926880E-2,7.976293564E-4
9.746684429E0,8.356571198E-3,5.424499512E-2,-3.185033798E-2
9.751580783E0,-1.337301731E-2,1.780052185E-1,-3.644979000E-2
9.756477085E0,2.924895287E-2,2.225179672E-1,-6.770229340E-2
9.761373439E0,9.770381451E-2,2.644224167E-1,-1.040244102E-1
9.766269741E0,1.346712112E-1,2.870969772E-1,-1.524560452E-1
9.771166095E0,1.379426718E-1,2.764282227E-1,-1.605672836E-1
9.776062449E0,1.312665939E-1,2.920045853E-1,-1.523925066E-1
9.780958751E0,1.025712490E-1,2.575635910E-1,-1.065229177E-1
9.785855106E0,5.422377586E-2,2.209596634E-1,-5.640709400E-2
9.790751408E0,1.488018036E-2,1.892986298E-1,2.867102623E-3
9.795647762E0,-2.025711536E-2,1.387605667E-1,7.315754890E-3
9.800544064E0,-3.200745583E-2,4.813194275E-2,5.018317699E-2
9.805440418E0,-4.399776459E-2,3.242492676E-3,3.860998154E-2
9.810354949E0,-4.171252251E-2,-9.359359741E-2,5.852937698E-2
9.815233074E0,-7.028877735E-2,-1.754865646E-1,4.812073708E-2
9.820147033E0,-1.031013727E-1,-2.306232452E-1,5.730795860E-2
9.825025731E0,-1.662641764E-1,-2.640085220E-1,6.234085560E-2
9.829940262E0,-1.714147329E-1,-3.398666382E-1,1.082457304E-1
9.834818387E0,-1.689360142E-1,-4.079961777E-1,1.424705982E-1
